File: Daly/SampleLog.csv
Line #, Timestamp, Battery ID, Current (A), Voltage (V), State Of Charge (%), Total Capacity, Remaining Capacity (mAH),Cell Voltage 1 (mV),Cell Voltage 2 (mV),Cell Voltage 3 (mV),Cell Voltage 4 (mV),Cell Voltage 5 (mV),Cell Voltage 6 (mV),Cell Voltage 7 (mV),Cell Voltage 8 (mV),Cell Voltage 9 (mV),Cell Voltage 10 (mV),Cell Voltage 11 (mV),Cell Voltage 12 (mV),Cell Voltage 13 (mV),Cell Voltage 14 (mV),Cell Voltage 15 (mV),Cell Voltage 16 (mV),Highest Cell Voltage (mV), Lowest Cell Voltage (mV),Temperature 1 (C),Temperature 2 (C),Temperature 3 (C),Temperature 4 (C),Charging (1) Discharging (2) Status, Charging MOS Status, Discharging MOS Status, Balancing Status, Cell Balancing Status,Alarm 1,Alarm 2,Alarm 3,Alarm 4,Alarm 5,Alarm 6,Alarm 7,Alarm 8,
1, 2023-09-25 16:15:34, 0, 0.00, 14.50, 100.00, 0.00, 302000.00, 3644.00, 3643.00, 3636.00, 3627.00,  ,  ,  ,  ,  ,  ,  ,  ,  ,  ,  ,  , 3644.00, 3627.00, 42.00, 44.00,  ,  , 0, 0, 1, 0, '0000', '01000100', '00000000', '00001000', '00000000', '00000000', '00000000', '00000000', '00000000',
7, 2023-09-25 16:15:52, 0, 0.00, 14.50, 100.00, 0.00, 302000.00, 3643.00, 3643.00, 3635.00, 3627.00,  ,  ,  ,  ,  ,  ,  ,  ,  ,  ,  ,  , 3643.00, 3627.00, 42.00, 44.00,  ,  , 0, 0, 1, 0, '0000', '01000100', '00000000', '00001000', '00000000', '00000000', '00000000', '00000000', '00000000',
13, 2023-09-25 16:16:10, 0, 0.00, 14.50, 100.00, 0.00, 302000.00, 3643.00, 3643.00, 3635.00, 3627.00,  ,  ,  ,  ,  ,  ,  ,  ,  ,  ,  ,  , 3643.00, 3627.00, 42.00, 44.00,  ,  , 0, 0, 1, 0, '0000', '01000100', '00000000', '00001000', '00000000', '00000000', '00000000', '00000000', '00000000',
19, 2023-09-25 16:16:28, 0, 0.00, 14.50, 100.00, 0.00, 302000.00, 3642.00, 3643.00, 3635.00, 3627.00,  ,  ,  ,  ,  ,  ,  ,  ,  ,  ,  ,  , 3643.00, 3627.00, 42.00, 44.00,  ,  , 0, 0, 1, 0, '0000', '01000100', '00000000', '00001000', '00000000', '00000000', '00000000', '00000000', '00000000',
25, 2023-09-25 16:16:47, 0, 0.00, 14.50, 100.00, 0.00, 302000.00, 3643.00, 3642.00, 3636.00, 3627.00,  ,  ,  ,  ,  ,  ,  ,  ,  ,  ,  ,  , 3643.00, 3627.00, 42.00, 44.00,  ,  , 0, 0, 1, 0, '0000', '01000100', '00000000', '00001000', '00000000', '00000000', '00000000', '00000000', '00000000',
31, 2023-09-25 16:17:05, 0, 0.00, 14.50, 100.00, 0.00, 302000.00, 3643.00, 3643.00, 3639.00, 3627.00,  ,  ,  ,  ,  ,  ,  ,  ,  ,  ,  ,  , 3643.00, 3627.00, 42.00, 44.00,  ,  , 0, 0, 1, 0, '0000', '01000100', '00000000', '00001000', '00000000', '00000000', '00000000', '00000000', '00000000',
37, 2023-09-25 16:17:22, 0, 0.00, 14.50, 100.00, 0.00, 302000.00, 3642.00, 3642.00, 3638.00, 3628.00,  ,  ,  ,  ,  ,  ,  ,  ,  ,  ,  ,  , 3643.00, 3628.00, 42.00, 44.00,  ,  , 0, 0, 1, 0, '0000', '01000100', '00000000', '00001000', '00000000', '00000000', '00000000', '00000000', '00000000',
43, 2023-09-25 16:17:40, 0, 0.00, 14.50, 100.00, 0.00, 302000.00, 3643.00, 3643.00, 3639.00, 3627.00,  ,  ,  ,  ,  ,  ,  ,  ,  ,  ,  ,  , 3643.00, 3627.00, 42.00, 44.00,  ,  , 0, 0, 1, 0, '0000', '01000100', '00000000', '00001000', '00000000', '00000000', '00000000', '00000000', '00000000',
49, 2023-09-25 16:17:58, 0, 0.00, 14.50, 100.00, 0.00, 302000.00, 3643.00, 3642.00, 3638.00, 3627.00,  ,  ,  ,  ,  ,  ,  ,  ,  ,  ,  ,  , 3643.00, 3627.00, 42.00, 44.00,  ,  , 0, 0, 1, 0, '0000', '01000100', '00000000', '00001000', '00000000', '00000000', '00000000', '00000000', '00000000',
55, 2023-09-25 16:18:16, 0, 0.00, 14.50, 100.00, 0.00, 302000.00, 3643.00, 3643.00, 3639.00, 3628.00,  ,  ,  ,  ,  ,  ,  ,  ,  ,  ,  ,  , 3643.00, 3628.00, 42.00, 44.00,  ,  , 0, 0, 1, 0, '0000', '01000100', '00000000', '00001000', '00000000', '00000000', '00000000', '00000000', '00000000',
61, 2023-09-25 16:18:34, 0, 0.00, 14.50, 100.00, 0.00, 302000.00, 3643.00, 3643.00, 3637.00, 3627.00,  ,  ,  ,  ,  ,  ,  ,  ,  ,  ,  ,  , 3643.00, 3627.00, 42.00, 44.00,  ,  , 0, 0, 1, 0, '0000', '01000100', '00000000', '00001000', '00000000', '00000000', '00000000', '00000000', '00000000',
67, 2023-09-25 16:18:52, 0, 0.00, 14.50, 100.00, 0.00, 302000.00, 3644.00, 3643.00, 3639.00, 3627.00,  ,  ,  ,  ,  ,  ,  ,  ,  ,  ,  ,  , 3643.00, 3627.00, 42.00, 44.00,  ,  , 0, 0, 1, 0, '0000', '01000100', '00000000', '00001000', '00000000', '00000000', '00000000', '00000000', '00000000',
73, 2023-09-25 16:19:10, 0, 0.00, 14.50, 100.00, 0.00, 302000.00, 3644.00, 3643.00, 3635.00, 3627.00,  ,  ,  ,  ,  ,  ,  ,  ,  ,  ,  ,  , 3645.00, 3627.00, 44.00, 44.00,  ,  , 0, 0, 1, 0, '0000', '01000100', '00000000', '00001000', '00000000', '00000000', '00000000', '00000000', '00000000',
79, 2023-09-25 16:19:28, 0, 0.00, 14.50, 100.00, 0.00, 302000.00, 3645.00, 3643.00, 3638.00, 3628.00,  ,  ,  ,  ,  ,  ,  ,  ,  ,  ,  ,  , 3645.00, 3628.00, 44.00, 44.00,  ,  , 0, 0, 1, 0, '0000', '01000100', '00000000', '00001000', '00000000', '00000000', '00000000', '00000000', '00000000',
85, 2023-09-25 16:19:46, 0, 0.00, 14.50, 100.00, 0.00, 302000.00, 3644.00, 3643.00, 3635.00, 3627.00,  ,  ,  ,  ,  ,  ,  ,  ,  ,  ,  ,  , 3645.00, 3627.00, 44.00, 45.00,  ,  , 0, 0, 1, 0, '0000', '01000100', '00000000', '00001000', '00000000', '00000000', '00000000', '00000000', '00000000',
91, 2023-09-25 16:20:04, 0, 0.00, 14.50, 100.00, 0.00, 302000.00, 3644.00, 3643.00, 3635.00, 3627.00,  ,  ,  ,  ,  ,  ,  ,  ,  ,  ,  ,  , 3645.00, 3627.00, 44.00, 44.00,  ,  , 0, 0, 1, 0, '0000', '01000100', '00000000', '00001000', '00000000', '00000000', '00000000', '00000000', '00000000',
97, 2023-09-25 16:20:22, 0, 0.00, 14.50, 100.00, 0.00, 302000.00, 3645.00, 3643.00, 3636.00, 3627.00,  ,  ,  ,  ,  ,  ,  ,  ,  ,  ,  ,  , 3644.00, 3627.00, 44.00, 46.00,  ,  , 0, 0, 1, 0, '0000', '01000100', '00000000', '00001000', '00000000', '00000000', '00000000', '00000000', '00000000',
103, 2023-09-25 16:20:40, 0, 0.00, 14.50, 100.00, 0.00, 302000.00, 3645.00, 3643.00, 3636.00, 3627.00,  ,  ,  ,  ,  ,  ,  ,  ,  ,  ,  ,  , 3644.00, 3627.00, 44.00, 46.00,  ,  , 0, 0, 1, 0, '0000', '01000100', '00000000', '00001000', '00000000', '00000000', '00000000', '00000000', '00000000',
109, 2023-09-25 16:20:58, 0, 0.00, 14.50, 100.00, 0.00, 302000.00, 3645.00, 3643.00, 3635.00, 3627.00,  ,  ,  ,  ,  ,  ,  ,  ,  ,  ,  ,  , 3645.00, 3627.00, 44.00, 46.00,  ,  , 0, 0, 1, 0, '0000', '01000100', '00000000', '00001000', '00000000', '00000000', '00000000', '00000000', '00000000',
115, 2023-09-25 16:21:16, 0, 0.00, 14.50, 100.00, 0.00, 302000.00, 3645.00, 3643.00, 3635.00, 3627.00,  ,  ,  ,  ,  ,  ,  ,  ,  ,  ,  ,  , 3643.00, 3627.00, 44.00, 46.00,  ,  , 0, 0, 1, 0, '0000', '01000100', '00000000', '00001000', '00000000', '00000000', '00000000', '00000000', '00000000',
121, 2023-09-25 16:21:34, 0, 0.00, 14.50, 100.00, 0.00, 302000.00, 3643.00, 3642.00, 3634.00, 3627.00,  ,  ,  ,  ,  ,  ,  ,  ,  ,  ,  ,  , 3645.00, 3627.00, 44.00, 46.00,  ,  , 0, 0, 1, 0, '0000', '01000100', '00000000', '00001000', '00000000', '00000000', '00000000', '00000000', '00000000',
127, 2023-09-25 16:21:56, 0, 0.00, 14.50, 100.00, 0.00, 302000.00, 3644.00, 3643.00, 3636.00, 3627.00,  ,  ,  ,  ,  ,  ,  ,  ,  ,  ,  ,  , 3644.00, 3627.00, 44.00, 46.00,  ,  , 0, 0, 1, 0, '0000', '01000100', '00000000', '00001000', '00000000', '00000000', '00000000', '00000000', '00000000',
133, 2023-09-25 16:22:15, 0, 0.00, 14.50, 100.00, 0.00, 302000.00, 3645.00, 3643.00, 3635.00, 3627.00,  ,  ,  ,  ,  ,  ,  ,  ,  ,  ,  ,  , 3645.00, 3627.00, 44.00, 46.00,  ,  , 0, 0, 1, 0, '0000', '01000100', '00000000', '00001000', '00000000', '00000000', '00000000', '00000000', '00000000',
139, 2023-09-25 16:22:33, 0, 0.00, 14.50, 100.00, 0.00, 302000.00, 3644.00, 3642.00, 3635.00, 3627.00,  ,  ,  ,  ,  ,  ,  ,  ,  ,  ,  ,  , 3645.00, 3627.00, 44.00, 46.00,  ,  , 0, 0, 1, 0, '0000', '01000100', '00000000', '00001000', '00000000', '00000000', '00000000', '00000000', '00000000',
145, 2023-09-25 16:22:51, 0, 0.00, 14.50, 100.00, 0.00, 302000.00, 3645.00, 3642.00, 3636.00, 3627.00,  ,  ,  ,  ,  ,  ,  ,  ,  ,  ,  ,  , 3644.00, 3627.00, 44.00, 46.00,  ,  , 0, 0, 1, 0, '0000', '01000100', '00000000', '00001000', '00000000', '00000000', '00000000', '00000000', '00000000',
151, 2023-09-25 16:23:09, 0, 0.00, 14.50, 100.00, 0.00, 302000.00, 3645.00, 3643.00, 3636.00, 3627.00,  ,  ,  ,  ,  ,  ,  ,  ,  ,  ,  ,  , 3644.00, 3627.00, 44.00, 46.00,  ,  , 0, 0, 1, 0, '0000', '01000100', '00000000', '00001000', '00000000', '00000000', '00000000', '00000000', '00000000',
157, 2023-09-25 16:23:27, 0, 0.00, 14.50, 100.00, 0.00, 302000.00, 3645.00, 3643.00, 3636.00, 3627.00,  ,  ,  ,  ,  ,  ,  ,  ,  ,  ,  ,  , 3645.00, 3627.00, 44.00, 46.00,  ,  , 0, 0, 1, 0, '0000', '01000100', '00000000', '00001000', '00000000', '00000000', '00000000', '00000000', '00000000',
163, 2023-09-25 16:23:45, 0, 0.00, 14.50, 100.00, 0.00, 302000.00, 3645.00, 3643.00, 3637.00, 3627.00,  ,  ,  ,  ,  ,  ,  ,  ,  ,  ,  ,  , 3644.00, 3627.00, 44.00, 46.00,  ,  , 0, 0, 1, 0, '0000', '01000100', '00000000', '00001000', '00000000', '00000000', '00000000', '00000000', '00000000',
169, 2023-09-25 16:24:03, 0, 0.00, 14.50, 100.00, 0.00, 302000.00, 3644.00, 3643.00, 3638.00, 3627.00,  ,  ,  ,  ,  ,  ,  ,  ,  ,  ,  ,  , 3644.00, 3627.00, 44.00, 46.00,  ,  , 0, 0, 1, 0, '0000', '01000100', '00000000', '00001000', '00000000', '00000000', '00000000', '00000000', '00000000',
175, 2023-09-25 16:24:20, 0, 0.00, 14.50, 100.00, 0.00, 302000.00, 3645.00, 3643.00, 3638.00, 3628.00,  ,  ,  ,  ,  ,  ,  ,  ,  ,  ,  ,  , 3645.00, 3628.00, 44.00, 46.00,  ,  , 0, 0, 1, 0, '0000', '01000100', '00000000', '00001000', '00000000', '00000000', '00000000', '00000000', '00000000',
181, 2023-09-25 16:24:38, 0, 0.00, 14.50, 100.00, 0.00, 302000.00, 3644.00, 3643.00, 3637.00, 3626.00,  ,  ,  ,  ,  ,  ,  ,  ,  ,  ,  ,  , 3644.00, 3627.00, 44.00, 46.00,  ,  , 0, 0, 1, 0, '0000', '01000100', '00000000', '00001000', '00000000', '00000000', '00000000', '00000000', '00000000',
187, 2023-09-25 16:24:56, 0, 0.00, 14.50, 100.00, 0.00, 302000.00, 3643.00, 3643.00, 3639.00, 3627.00,  ,  ,  ,  ,  ,  ,  ,  ,  ,  ,  ,  , 3643.00, 3627.00, 44.00, 46.00,  ,  , 0, 0, 1, 0, '0000', '01000100', '00000000', '00001000', '00000000', '00000000', '00000000', '00000000', '00000000',
193, 2023-09-25 16:25:14, 0, 0.00, 14.50, 100.00, 0.00, 302000.00, 3643.00, 3643.00, 3638.00, 3627.00,  ,  ,  ,  ,  ,  ,  ,  ,  ,  ,  ,  , 3643.00, 3627.00, 44.00, 46.00,  ,  , 0, 0, 1, 0, '0000', '01000100', '00000000', '00001000', '00000000', '00000000', '00000000', '00000000', '00000000',
199, 2023-09-25 16:25:33, 0, 0.00, 14.50, 100.00, 0.00, 302000.00, 3643.00, 3643.00, 3637.00, 3628.00,  ,  ,  ,  ,  ,  ,  ,  ,  ,  ,  ,  , 3643.00, 3628.00, 44.00, 46.00,  ,  , 0, 0, 1, 0, '0000', '01000100', '00000000', '00001000', '00000000', '00000000', '00000000', '00000000', '00000000',
205, 2023-09-25 16:25:51, 0, 0.00, 14.50, 100.00, 0.00, 302000.00, 3643.00, 3643.00, 3638.00, 3627.00,  ,  ,  ,  ,  ,  ,  ,  ,  ,  ,  ,  , 3643.00, 3627.00, 44.00, 46.00,  ,  , 0, 0, 1, 0, '0000', '01000100', '00000000', '00001000', '00000000', '00000000', '00000000', '00000000', '00000000',
211, 2023-09-25 16:26:09, 0, 0.00, 14.50, 100.00, 0.00, 302000.00, 3644.00, 3642.00, 3636.00, 3627.00,  ,  ,  ,  ,  ,  ,  ,  ,  ,  ,  ,  , 3644.00, 3627.00, 44.00, 46.00,  ,  , 0, 0, 1, 0, '0000', '01000100', '00000000', '00001000', '00000000', '00000000', '00000000', '00000000', '00000000',
217, 2023-09-25 16:26:27, 0, 0.00, 14.50, 100.00, 0.00, 302000.00, 3644.00, 3642.00, 3637.00, 3627.00,  ,  ,  ,  ,  ,  ,  ,  ,  ,  ,  ,  , 3645.00, 3627.00, 44.00, 46.00,  ,  , 0, 0, 1, 0, '0000', '01000100', '00000000', '00001000', '00000000', '00000000', '00000000', '00000000', '00000000',
223, 2023-09-25 16:26:45, 0, 0.00, 14.50, 100.00, 0.00, 302000.00, 3645.00, 3643.00, 3635.00, 3627.00,  ,  ,  ,  ,  ,  ,  ,  ,  ,  ,  ,  , 3645.00, 3627.00, 44.00, 46.00,  ,  , 0, 0, 1, 0, '0000', '01000100', '00000000', '00001000', '00000000', '00000000', '00000000', '00000000', '00000000',
229, 2023-09-25 16:27:03, 0, 0.00, 14.50, 100.00, 0.00, 302000.00, 3644.00, 3643.00, 3637.00, 3627.00,  ,  ,  ,  ,  ,  ,  ,  ,  ,  ,  ,  , 3644.00, 3627.00, 44.00, 46.00,  ,  , 0, 0, 1, 0, '0000', '01000100', '00000000', '00001000', '00000000', '00000000', '00000000', '00000000', '00000000',
235, 2023-09-25 16:27:21, 0, 0.00, 14.50, 100.00, 0.00, 302000.00, 3642.00, 3642.00, 3635.00, 3627.00,  ,  ,  ,  ,  ,  ,  ,  ,  ,  ,  ,  , 3643.00, 3627.00, 44.00, 46.00,  ,  , 0, 0, 1, 0, '0000', '01000100', '00000000', '00001000', '00000000', '00000000', '00000000', '00000000', '00000000',
241, 2023-09-25 16:27:39, 0, 0.00, 14.50, 100.00, 0.00, 302000.00, 3644.00, 3643.00, 3636.00, 3626.00,  ,  ,  ,  ,  ,  ,  ,  ,  ,  ,  ,  , 3644.00, 3627.00, 44.00, 46.00,  ,  , 0, 0, 1, 0, '0000', '01000100', '00000000', '00001000', '00000000', '00000000', '00000000', '00000000', '00000000',
247, 2023-09-25 16:27:57, 0, 0.00, 14.50, 100.00, 0.00, 302000.00, 3642.00, 3643.00, 3637.00, 3627.00,  ,  ,  ,  ,  ,  ,  ,  ,  ,  ,  ,  , 3643.00, 3627.00, 44.00, 46.00,  ,  , 0, 0, 1, 0, '0000', '01000100', '00000000', '00001000', '00000000', '00000000', '00000000', '00000000', '00000000',
253, 2023-09-25 16:28:15, 0, 0.00, 14.50, 100.00, 0.00, 302000.00, 3642.00, 3642.00, 3636.00, 3627.00,  ,  ,  ,  ,  ,  ,  ,  ,  ,  ,  ,  , 3643.00, 3627.00, 44.00, 46.00,  ,  , 0, 0, 1, 0, '0000', '01000100', '00000000', '00001000', '00000000', '00000000', '00000000', '00000000', '00000000',
259, 2023-09-25 16:28:33, 0, 0.00, 14.50, 100.00, 0.00, 302000.00, 3644.00, 3643.00, 3635.00, 3627.00,  ,  ,  ,  ,  ,  ,  ,  ,  ,  ,  ,  , 3644.00, 3627.00, 44.00, 46.00,  ,  , 0, 0, 1, 0, '0000', '01000100', '00000000', '00001000', '00000000', '00000000', '00000000', '00000000', '00000000',
265, 2023-09-25 16:28:51, 0, 0.00, 14.50, 100.00, 0.00, 302000.00, 3644.00, 3643.00, 3636.00, 3627.00,  ,  ,  ,  ,  ,  ,  ,  ,  ,  ,  ,  , 3644.00, 3627.00, 44.00, 46.00,  ,  , 0, 0, 1, 0, '0000', '01000100', '00000000', '00001000', '00000000', '00000000', '00000000', '00000000', '00000000',
271, 2023-09-25 16:29:09, 0, 0.00, 14.50, 100.00, 0.00, 302000.00, 3645.00, 3643.00, 3637.00, 3627.00,  ,  ,  ,  ,  ,  ,  ,  ,  ,  ,  ,  , 3645.00, 3627.00, 44.00, 46.00,  ,  , 0, 0, 1, 0, '0000', '01000100', '00000000', '00001000', '00000000', '00000000', '00000000', '00000000', '00000000',
277, 2023-09-25 16:29:27, 0, 0.00, 14.50, 100.00, 0.00, 302000.00, 3644.00, 3643.00, 3637.00, 3627.00,  ,  ,  ,  ,  ,  ,  ,  ,  ,  ,  ,  , 3645.00, 3627.00, 44.00, 46.00,  ,  , 0, 0, 1, 0, '0000', '01000100', '00000000', '00001000', '00000000', '00000000', '00000000', '00000000', '00000000',
283, 2023-09-25 16:29:45, 0, 0.00, 14.50, 100.00, 0.00, 302000.00, 3645.00, 3643.00, 3639.00, 3627.00,  ,  ,  ,  ,  ,  ,  ,  ,  ,  ,  ,  , 3645.00, 3627.00, 44.00, 46.00,  ,  , 0, 0, 1, 0, '0000', '01000100', '00000000', '00001000', '00000000', '00000000', '00000000', '00000000', '00000000',
289, 2023-09-25 16:30:03, 0, 0.00, 14.50, 100.00, 0.00, 302000.00, 3642.00, 3643.00, 3639.00, 3627.00,  ,  ,  ,  ,  ,  ,  ,  ,  ,  ,  ,  , 3644.00, 3627.00, 44.00, 46.00,  ,  , 0, 0, 1, 0, '0000', '01000100', '00000000', '00001000', '00000000', '00000000', '00000000', '00000000', '00000000',
295, 2023-09-25 16:30:21, 0, 0.00, 14.50, 100.00, 0.00, 302000.00, 3643.00, 3642.00, 3637.00, 3626.00,  ,  ,  ,  ,  ,  ,  ,  ,  ,  ,  ,  , 3644.00, 3627.00, 44.00, 46.00,  ,  , 0, 0, 1, 0, '0000', '01000100', '00000000', '00001000', '00000000', '00000000', '00000000', '00000000', '00000000',
301, 2023-09-25 16:30:39, 0, 0.00, 14.50, 100.00, 0.00, 302000.00, 3643.00, 3642.00, 3635.00, 3627.00,  ,  ,  ,  ,  ,  ,  ,  ,  ,  ,  ,  , 3645.00, 3627.00, 44.00, 46.00,  ,  , 0, 0, 1, 0, '0000', '01000100', '00000000', '00001000', '00000000', '00000000', '00000000', '00000000', '00000000',
307, 2023-09-25 16:30:57, 0, 0.00, 14.50, 100.00, 0.00, 302000.00, 3644.00, 3643.00, 3637.00, 3627.00,  ,  ,  ,  ,  ,  ,  ,  ,  ,  ,  ,  , 3645.00, 3627.00, 44.00, 46.00,  ,  , 0, 0, 1, 0, '0000', '01000100', '00000000', '00001000', '00000000', '00000000', '00000000', '00000000', '00000000',
313, 2023-09-25 16:31:15, 0, 0.00, 14.50, 100.00, 0.00, 302000.00, 3643.00, 3643.00, 3639.00, 3627.00,  ,  ,  ,  ,  ,  ,  ,  ,  ,  ,  ,  , 3643.00, 3627.00, 44.00, 46.00,  ,  , 0, 0, 1, 0, '0000', '01000100', '00000000', '00001000', '00000000', '00000000', '00000000', '00000000', '00000000',
319, 2023-09-25 16:31:33, 0, 0.00, 14.50, 100.00, 0.00, 302000.00, 3642.00, 3642.00, 3639.00, 3627.00,  ,  ,  ,  ,  ,  ,  ,  ,  ,  ,  ,  , 3643.00, 3627.00, 44.00, 46.00,  ,  , 0, 0, 1, 0, '0000', '01000100', '00000000', '00001000', '00000000', '00000000', '00000000', '00000000', '00000000',
325, 2023-09-25 16:31:51, 0, 0.00, 14.50, 100.00, 0.00, 302000.00, 3643.00, 3642.00, 3637.00, 3627.00,  ,  ,  ,  ,  ,  ,  ,  ,  ,  ,  ,  , 3643.00, 3627.00, 44.00, 46.00,  ,  , 0, 0, 1, 0, '0000', '01000100', '00000000', '00001000', '00000000', '00000000', '00000000', '00000000', '00000000',
331, 2023-09-25 16:32:09, 0, 0.00, 14.50, 100.00, 0.00, 302000.00, 3643.00, 3643.00, 3638.00, 3627.00,  ,  ,  ,  ,  ,  ,  ,  ,  ,  ,  ,  , 3643.00, 3627.00, 44.00, 46.00,  ,  , 0, 0, 1, 0, '0000', '01000100', '00000000', '00001000', '00000000', '00000000', '00000000', '00000000', '00000000',
337, 2023-09-25 16:32:27, 0, 0.00, 14.50, 100.00, 0.00, 302000.00, 3644.00, 3643.00, 3637.00, 3627.00,  ,  ,  ,  ,  ,  ,  ,  ,  ,  ,  ,  , 3644.00, 3627.00, 44.00, 46.00,  ,  , 0, 0, 1, 0, '0000', '01000100', '00000000', '00001000', '00000000', '00000000', '00000000', '00000000', '00000000',
343, 2023-09-25 16:32:45, 0, 0.00, 14.50, 100.00, 0.00, 302000.00, 3643.00, 3643.00, 3637.00, 3627.00,  ,  ,  ,  ,  ,  ,  ,  ,  ,  ,  ,  , 3643.00, 3627.00, 42.00, 45.00,  ,  , 0, 0, 1, 0, '0000', '01000100', '00000000', '00001000', '00000000', '00000000', '00000000', '00000000', '00000000',
349, 2023-09-25 16:33:03, 0, 0.00, 14.50, 100.00, 0.00, 302000.00, 3643.00, 3643.00, 3639.00, 3628.00,  ,  ,  ,  ,  ,  ,  ,  ,  ,  ,  ,  , 3643.00, 3628.00, 42.00, 44.00,  ,  , 0, 0, 1, 0, '0000', '01000100', '00000000', '00001000', '00000000', '00000000', '00000000', '00000000', '00000000',
355, 2023-09-25 16:33:21, 0, 0.00, 14.50, 100.00, 0.00, 302000.00, 3644.00, 3643.00, 3636.00, 3628.00,  ,  ,  ,  ,  ,  ,  ,  ,  ,  ,  ,  , 3645.00, 3628.00, 42.00, 44.00,  ,  , 0, 0, 1, 0, '0000', '01000100', '00000000', '00001000', '00000000', '00000000', '00000000', '00000000', '00000000',
361, 2023-09-25 16:33:39, 0, 0.00, 14.50, 100.00, 0.00, 302000.00, 3642.00, 3642.00, 3634.00, 3626.00,  ,  ,  ,  ,  ,  ,  ,  ,  ,  ,  ,  , 3643.00, 3627.00, 42.00, 44.00,  ,  , 0, 0, 1, 0, '0000', '01000100', '00000000', '00001000', '00000000', '00000000', '00000000', '00000000', '00000000',
367, 2023-09-25 16:33:57, 0, 0.00, 14.50, 100.00, 0.00, 302000.00, 3645.00, 3643.00, 3637.00, 3627.00,  ,  ,  ,  ,  ,  ,  ,  ,  ,  ,  ,  , 3645.00, 3627.00, 42.00, 44.00,  ,  , 0, 0, 1, 0, '0000', '01000100', '00000000', '00001000', '00000000', '00000000', '00000000', '00000000', '00000000',
373, 2023-09-25 16:34:15, 0, 0.00, 14.50, 100.00, 0.00, 302000.00, 3644.00, 3643.00, 3639.00, 3628.00,  ,  ,  ,  ,  ,  ,  ,  ,  ,  ,  ,  , 3644.00, 3628.00, 42.00, 44.00,  ,  , 0, 0, 1, 0, '0000', '01000100', '00000000', '00001000', '00000000', '00000000', '00000000', '00000000', '00000000',
379, 2023-09-25 16:34:33, 0, 0.00, 14.50, 100.00, 0.00, 302000.00, 3645.00, 3643.00, 3637.00, 3628.00,  ,  ,  ,  ,  ,  ,  ,  ,  ,  ,  ,  , 3644.00, 3628.00, 42.00, 44.00,  ,  , 0, 0, 1, 0, '0000', '01000100', '00000000', '00001000', '00000000', '00000000', '00000000', '00000000', '00000000',
385, 2023-09-25 16:34:51, 0, 0.00, 14.50, 100.00, 0.00, 302000.00, 3644.00, 3643.00, 3637.00, 3627.00,  ,  ,  ,  ,  ,  ,  ,  ,  ,  ,  ,  , 3644.00, 3627.00, 42.00, 44.00,  ,  , 0, 0, 1, 0, '0000', '01000100', '00000000', '00001000', '00000000', '00000000', '00000000', '00000000', '00000000',
391, 2023-09-25 16:35:09, 0, 0.00, 14.50, 100.00, 0.00, 302000.00, 3645.00, 3643.00, 3638.00, 3627.00,  ,  ,  ,  ,  ,  ,  ,  ,  ,  ,  ,  , 3644.00, 3627.00, 42.00, 44.00,  ,  , 0, 0, 1, 0, '0000', '01000100', '00000000', '00001000', '00000000', '00000000', '00000000', '00000000', '00000000',
397, 2023-09-25 16:35:27, 0, 0.00, 14.50, 100.00, 0.00, 302000.00, 3645.00, 3643.00, 3639.00, 3628.00,  ,  ,  ,  ,  ,  ,  ,  ,  ,  ,  ,  , 3644.00, 3628.00, 42.00, 44.00,  ,  , 0, 0, 1, 0, '0000', '01000100', '00000000', '00001000', '00000000', '00000000', '00000000', '00000000', '00000000',
403, 2023-09-25 16:35:45, 0, 0.00, 14.50, 100.00, 0.00, 302000.00, 3644.00, 3642.00, 3636.00, 3628.00,  ,  ,  ,  ,  ,  ,  ,  ,  ,  ,  ,  , 3644.00, 3628.00, 42.00, 44.00,  ,  , 0, 0, 1, 0, '0000', '01000100', '00000000', '00001000', '00000000', '00000000', '00000000', '00000000', '00000000',
409, 2023-09-25 16:36:03, 0, 0.00, 14.50, 100.00, 0.00, 302000.00, 3645.00, 3643.00, 3638.00, 3627.00,  ,  ,  ,  ,  ,  ,  ,  ,  ,  ,  ,  , 3645.00, 3627.00, 42.00, 44.00,  ,  , 0, 0, 1, 0, '0000', '01000100', '00000000', '00001000', '00000000', '00000000', '00000000', '00000000', '00000000',
415, 2023-09-25 16:36:21, 0, 0.00, 14.50, 100.00, 0.00, 302000.00, 3645.00, 3643.00, 3639.00, 3628.00,  ,  ,  ,  ,  ,  ,  ,  ,  ,  ,  ,  , 3644.00, 3628.00, 42.00, 44.00,  ,  , 0, 0, 1, 0, '0000', '01000100', '00000000', '00001000', '00000000', '00000000', '00000000', '00000000', '00000000',
421, 2023-09-25 16:36:38, 0, 0.00, 14.50, 100.00, 0.00, 302000.00, 3645.00, 3643.00, 3638.00, 3627.00,  ,  ,  ,  ,  ,  ,  ,  ,  ,  ,  ,  , 3644.00, 3627.00, 42.00, 44.00,  ,  , 0, 0, 1, 0, '0000', '01000100', '00000000', '00001000', '00000000', '00000000', '00000000', '00000000', '00000000',
427, 2023-09-25 16:36:56, 0, 0.00, 14.50, 100.00, 0.00, 302000.00, 3645.00, 3643.00, 3637.00, 3628.00,  ,  ,  ,  ,  ,  ,  ,  ,  ,  ,  ,  , 3645.00, 3628.00, 42.00, 44.00,  ,  , 0, 0, 1, 0, '0000', '01000100', '00000000', '00001000', '00000000', '00000000', '00000000', '00000000', '00000000',
433, 2023-09-25 16:37:14, 0, 0.00, 14.50, 100.00, 0.00, 302000.00, 3644.00, 3642.00, 3636.00, 3627.00,  ,  ,  ,  ,  ,  ,  ,  ,  ,  ,  ,  , 3645.00, 3627.00, 42.00, 44.00,  ,  , 0, 0, 1, 0, '0000', '01000100', '00000000', '00001000', '00000000', '00000000', '00000000', '00000000', '00000000',
439, 2023-09-25 16:37:32, 0, 0.00, 14.50, 100.00, 0.00, 302000.00, 3645.00, 3642.00, 3636.00, 3627.00,  ,  ,  ,  ,  ,  ,  ,  ,  ,  ,  ,  , 3645.00, 3628.00, 42.00, 44.00,  ,  , 0, 0, 1, 0, '0000', '01000100', '00000000', '00001000', '00000000', '00000000', '00000000', '00000000', '00000000',
445, 2023-09-25 16:37:50, 0, 0.00, 14.50, 100.00, 0.00, 302000.00, 3645.00, 3643.00, 3639.00, 3627.00,  ,  ,  ,  ,  ,  ,  ,  ,  ,  ,  ,  , 3645.00, 3627.00, 42.00, 44.00,  ,  , 0, 0, 1, 0, '0000', '01000100', '00000000', '00001000', '00000000', '00000000', '00000000', '00000000', '00000000',
451, 2023-09-25 16:38:08, 0, 0.00, 14.50, 100.00, 0.00, 302000.00, 3645.00, 3643.00, 3637.00, 3627.00,  ,  ,  ,  ,  ,  ,  ,  ,  ,  ,  ,  , 3645.00, 3628.00, 42.00, 45.00,  ,  , 0, 0, 1, 0, '0000', '01000100', '00000000', '00001000', '00000000', '00000000', '00000000', '00000000', '00000000',
457, 2023-09-25 16:38:26, 0, 0.00, 14.50, 100.00, 0.00, 302000.00, 3645.00, 3643.00, 3639.00, 3627.00,  ,  ,  ,  ,  ,  ,  ,  ,  ,  ,  ,  , 3644.00, 3627.00, 42.00, 44.00,  ,  , 0, 0, 1, 0, '0000', '01000100', '00000000', '00001000', '00000000', '00000000', '00000000', '00000000', '00000000',
463, 2023-09-25 16:38:44, 0, 0.00, 14.50, 100.00, 0.00, 302000.00, 3644.00, 3643.00, 3639.00, 3628.00,  ,  ,  ,  ,  ,  ,  ,  ,  ,  ,  ,  , 3644.00, 3628.00, 42.00, 44.00,  ,  , 0, 0, 1, 0, '0000', '01000100', '00000000', '00001000', '00000000', '00000000', '00000000', '00000000', '00000000',
469, 2023-09-25 16:39:02, 0, 0.00, 14.50, 100.00, 0.00, 302000.00, 3644.00, 3643.00, 3637.00, 3628.00,  ,  ,  ,  ,  ,  ,  ,  ,  ,  ,  ,  , 3645.00, 3628.00, 42.00, 44.00,  ,  , 0, 0, 1, 0, '0000', '01000100', '00000000', '00001000', '00000000', '00000000', '00000000', '00000000', '00000000',
475, 2023-09-25 16:39:20, 0, 0.00, 14.50, 100.00, 0.00, 302000.00, 3644.00, 3642.00, 3637.00, 3627.00,  ,  ,  ,  ,  ,  ,  ,  ,  ,  ,  ,  , 3644.00, 3627.00, 42.00, 44.00,  ,  , 0, 0, 1, 0, '0000', '01000100', '00000000', '00001000', '00000000', '00000000', '00000000', '00000000', '00000000',
481, 2023-09-25 16:39:38, 0, 0.00, 14.50, 100.00, 0.00, 302000.00, 3644.00, 3643.00, 3638.00, 3628.00,  ,  ,  ,  ,  ,  ,  ,  ,  ,  ,  ,  , 3645.00, 3628.00, 42.00, 44.00,  ,  , 0, 0, 1, 0, '0000', '01000100', '00000000', '00001000', '00000000', '00000000', '00000000', '00000000', '00000000',
487, 2023-09-25 16:39:56, 0, 0.00, 14.50, 100.00, 0.00, 302000.00, 3644.00, 3642.00, 3637.00, 3627.00,  ,  ,  ,  ,  ,  ,  ,  ,  ,  ,  ,  , 3644.00, 3628.00, 42.00, 45.00,  ,  , 0, 0, 1, 0, '0000', '01000100', '00000000', '00001000', '00000000', '00000000', '00000000', '00000000', '00000000',
493, 2023-09-25 16:40:14, 0, 0.00, 14.50, 100.00, 0.00, 302000.00, 3644.00, 3642.00, 3637.00, 3628.00,  ,  ,  ,  ,  ,  ,  ,  ,  ,  ,  ,  , 3645.00, 3629.00, 42.00, 44.00,  ,  , 0, 0, 1, 0, '0000', '01000100', '00000000', '00001000', '00000000', '00000000', '00000000', '00000000', '00000000',
499, 2023-09-25 16:40:32, 0, 0.00, 14.50, 100.00, 0.00, 302000.00, 3644.00, 3642.00, 3636.00, 3627.00,  ,  ,  ,  ,  ,  ,  ,  ,  ,  ,  ,  , 3644.00, 3627.00, 42.00, 44.00,  ,  , 0, 0, 1, 0, '0000', '01000100', '00000000', '00001000', '00000000', '00000000', '00000000', '00000000', '00000000',
505, 2023-09-25 16:40:50, 0, 0.00, 14.50, 100.00, 0.00, 302000.00, 3644.00, 3643.00, 3634.00, 3626.00,  ,  ,  ,  ,  ,  ,  ,  ,  ,  ,  ,  , 3645.00, 3627.00, 42.00, 44.00,  ,  , 0, 0, 1, 0, '0000', '01000100', '00000000', '00001000', '00000000', '00000000', '00000000', '00000000', '00000000',
511, 2023-09-25 16:41:08, 0, 0.00, 14.50, 100.00, 0.00, 302000.00, 3643.00, 3642.00, 3636.00, 3627.00,  ,  ,  ,  ,  ,  ,  ,  ,  ,  ,  ,  , 3644.00, 3627.00, 42.00, 44.00,  ,  , 0, 0, 1, 0, '0000', '01000100', '00000000', '00001000', '00000000', '00000000', '00000000', '00000000', '00000000',
517, 2023-09-25 16:41:26, 0, 0.00, 14.50, 100.00, 0.00, 302000.00, 3642.00, 3642.00, 3635.00, 3626.00,  ,  ,  ,  ,  ,  ,  ,  ,  ,  ,  ,  , 3643.00, 3627.00, 42.00, 44.00,  ,  , 0, 0, 1, 0, '0000', '01000100', '00000000', '00001000', '00000000', '00000000', '00000000', '00000000', '00000000',
523, 2023-09-25 16:41:44, 0, 0.00, 14.50, 100.00, 0.00, 302000.00, 3643.00, 3642.00, 3637.00, 3626.00,  ,  ,  ,  ,  ,  ,  ,  ,  ,  ,  ,  , 3643.00, 3627.00, 42.00, 44.00,  ,  , 0, 0, 1, 0, '0000', '01000100', '00000000', '00001000', '00000000', '00000000', '00000000', '00000000', '00000000',
529, 2023-09-25 16:42:02, 0, 0.00, 14.50, 100.00, 0.00, 302000.00, 3643.00, 3643.00, 3639.00, 3627.00,  ,  ,  ,  ,  ,  ,  ,  ,  ,  ,  ,  , 3643.00, 3627.00, 42.00, 44.00,  ,  , 0, 0, 1, 0, '0000', '01000100', '00000000', '00001000', '00000000', '00000000', '00000000', '00000000', '00000000',
535, 2023-09-25 16:42:20, 0, 0.00, 14.50, 100.00, 0.00, 302000.00, 3643.00, 3643.00, 3636.00, 3626.00,  ,  ,  ,  ,  ,  ,  ,  ,  ,  ,  ,  , 3643.00, 3627.00, 42.00, 44.00,  ,  , 0, 0, 1, 0, '0000', '01000100', '00000000', '00001000', '00000000', '00000000', '00000000', '00000000', '00000000',
541, 2023-09-25 16:42:38, 0, 0.00, 14.50, 100.00, 0.00, 302000.00, 3644.00, 3643.00, 3637.00, 3627.00,  ,  ,  ,  ,  ,  ,  ,  ,  ,  ,  ,  , 3644.00, 3627.00, 42.00, 44.00,  ,  , 0, 0, 1, 0, '0000', '01000100', '00000000', '00001000', '00000000', '00000000', '00000000', '00000000', '00000000',
547, 2023-09-25 16:42:56, 0, 0.00, 14.50, 100.00, 0.00, 302000.00, 3644.00, 3643.00, 3639.00, 3628.00,  ,  ,  ,  ,  ,  ,  ,  ,  ,  ,  ,  , 3644.00, 3628.00, 42.00, 44.00,  ,  , 0, 0, 1, 0, '0000', '01000100', '00000000', '00001000', '00000000', '00000000', '00000000', '00000000', '00000000',
553, 2023-09-25 16:43:14, 0, 0.00, 14.50, 100.00, 0.00, 302000.00, 3644.00, 3643.00, 3638.00, 3628.00,  ,  ,  ,  ,  ,  ,  ,  ,  ,  ,  ,  , 3644.00, 3628.00, 42.00, 44.00,  ,  , 0, 0, 1, 0, '0000', '01000100', '00000000', '00001000', '00000000', '00000000', '00000000', '00000000', '00000000',
559, 2023-09-25 16:43:32, 0, 0.00, 14.50, 100.00, 0.00, 302000.00, 3645.00, 3643.00, 3639.00, 3628.00,  ,  ,  ,  ,  ,  ,  ,  ,  ,  ,  ,  , 3645.00, 3629.00, 42.00, 44.00,  ,  , 0, 0, 1, 0, '0000', '01000100', '00000000', '00001000', '00000000', '00000000', '00000000', '00000000', '00000000',
565, 2023-09-25 16:43:50, 0, 0.00, 14.50, 100.00, 0.00, 302000.00, 3645.00, 3643.00, 3639.00, 3628.00,  ,  ,  ,  ,  ,  ,  ,  ,  ,  ,  ,  , 3644.00, 3628.00, 42.00, 44.00,  ,  , 0, 0, 1, 0, '0000', '01000100', '00000000', '00001000', '00000000', '00000000', '00000000', '00000000', '00000000',
571, 2023-09-25 16:44:08, 0, 0.00, 14.50, 100.00, 0.00, 302000.00, 3645.00, 3643.00, 3638.00, 3629.00,  ,  ,  ,  ,  ,  ,  ,  ,  ,  ,  ,  , 3644.00, 3629.00, 42.00, 45.00,  ,  , 0, 0, 1, 0, '0000', '01000100', '00000000', '00001000', '00000000', '00000000', '00000000', '00000000', '00000000',
577, 2023-09-25 16:44:26, 0, 0.00, 14.50, 100.00, 0.00, 302000.00, 3645.00, 3643.00, 3638.00, 3628.00,  ,  ,  ,  ,  ,  ,  ,  ,  ,  ,  ,  , 3645.00, 3628.00, 42.00, 46.00,  ,  , 0, 0, 1, 0, '0000', '01000100', '00000000', '00001000', '00000000', '00000000', '00000000', '00000000', '00000000',
583, 2023-09-25 16:44:44, 0, 0.00, 14.50, 100.00, 0.00, 302000.00, 3644.00, 3642.00, 3638.00, 3628.00,  ,  ,  ,  ,  ,  ,  ,  ,  ,  ,  ,  , 3644.00, 3629.00, 42.00, 46.00,  ,  , 0, 0, 1, 0, '0000', '01000100', '00000000', '00001000', '00000000', '00000000', '00000000', '00000000', '00000000',
589, 2023-09-25 16:45:02, 0, 0.00, 14.50, 100.00, 0.00, 302000.00, 3644.00, 3643.00, 3639.00, 3628.00,  ,  ,  ,  ,  ,  ,  ,  ,  ,  ,  ,  , 3645.00, 3629.00, 42.00, 44.00,  ,  , 0, 0, 1, 0, '0000', '01000100', '00000000', '00001000', '00000000', '00000000', '00000000', '00000000', '00000000',
595, 2023-09-25 16:45:20, 0, 0.00, 14.50, 100.00, 0.00, 302000.00, 3645.00, 3643.00, 3639.00, 3628.00,  ,  ,  ,  ,  ,  ,  ,  ,  ,  ,  ,  , 3645.00, 3629.00, 42.00, 44.00,  ,  , 0, 0, 1, 0, '0000', '01000100', '00000000', '00001000', '00000000', '00000000', '00000000', '00000000', '00000000',
601, 2023-09-25 16:45:38, 0, 0.00, 14.50, 100.00, 0.00, 302000.00, 3645.00, 3643.00, 3639.00, 3629.00,  ,  ,  ,  ,  ,  ,  ,  ,  ,  ,  ,  , 3645.00, 3629.00, 42.00, 44.00,  ,  , 0, 0, 1, 0, '0000', '01000100', '00000000', '00001000', '00000000', '00000000', '00000000', '00000000', '00000000',
607, 2023-09-25 16:45:56, 0, 0.00, 14.50, 100.00, 0.00, 302000.00, 3643.00, 3643.00, 3639.00, 3628.00,  ,  ,  ,  ,  ,  ,  ,  ,  ,  ,  ,  , 3645.00, 3629.00, 42.00, 44.00,  ,  , 0, 0, 1, 0, '0000', '01000100', '00000000', '00001000', '00000000', '00000000', '00000000', '00000000', '00000000',
613, 2023-09-25 16:46:14, 0, 0.00, 14.50, 100.00, 0.00, 302000.00, 3644.00, 3642.00, 3637.00, 3628.00,  ,  ,  ,  ,  ,  ,  ,  ,  ,  ,  ,  , 3644.00, 3629.00, 42.00, 44.00,  ,  , 0, 0, 1, 0, '0000', '01000100', '00000000', '00001000', '00000000', '00000000', '00000000', '00000000', '00000000',
619, 2023-09-25 16:46:32, 0, 0.00, 14.50, 100.00, 0.00, 302000.00, 3644.00, 3642.00, 3638.00, 3629.00,  ,  ,  ,  ,  ,  ,  ,  ,  ,  ,  ,  , 3644.00, 3629.00, 42.00, 44.00,  ,  , 0, 0, 1, 0, '0000', '01000100', '00000000', '00001000', '00000000', '00000000', '00000000', '00000000', '00000000',
625, 2023-09-25 16:46:50, 0, 0.00, 14.50, 100.00, 0.00, 302000.00, 3645.00, 3643.00, 3639.00, 3629.00,  ,  ,  ,  ,  ,  ,  ,  ,  ,  ,  ,  , 3645.00, 3629.00, 42.00, 44.00,  ,  , 0, 0, 1, 0, '0000', '01000100', '00000000', '00001000', '00000000', '00000000', '00000000', '00000000', '00000000',
631, 2023-09-25 16:47:07, 0, 0.00, 14.50, 100.00, 0.00, 302000.00, 3645.00, 3643.00, 3636.00, 3628.00,  ,  ,  ,  ,  ,  ,  ,  ,  ,  ,  ,  , 3645.00, 3629.00, 42.00, 45.00,  ,  , 0, 0, 1, 0, '0000', '01000100', '00000000', '00001000', '00000000', '00000000', '00000000', '00000000', '00000000',
637, 2023-09-25 16:47:26, 0, 0.00, 14.50, 100.00, 0.00, 302000.00, 3645.00, 3643.00, 3638.00, 3628.00,  ,  ,  ,  ,  ,  ,  ,  ,  ,  ,  ,  , 3645.00, 3629.00, 42.00, 46.00,  ,  , 0, 0, 1, 0, '0000', '01000100', '00000000', '00001000', '00000000', '00000000', '00000000', '00000000', '00000000',
643, 2023-09-25 16:47:44, 0, 0.00, 14.50, 100.00, 0.00, 302000.00, 3645.00, 3643.00, 3639.00, 3628.00,  ,  ,  ,  ,  ,  ,  ,  ,  ,  ,  ,  , 3645.00, 3628.00, 42.00, 46.00,  ,  , 0, 0, 1, 0, '0000', '01000100', '00000000', '00001000', '00000000', '00000000', '00000000', '00000000', '00000000',
649, 2023-09-25 16:48:02, 0, 0.00, 14.50, 100.00, 0.00, 302000.00, 3645.00, 3643.00, 3638.00, 3628.00,  ,  ,  ,  ,  ,  ,  ,  ,  ,  ,  ,  , 3645.00, 3628.00, 42.00, 46.00,  ,  , 0, 0, 1, 0, '0000', '01000100', '00000000', '00001000', '00000000', '00000000', '00000000', '00000000', '00000000',
655, 2023-09-25 16:48:20, 0, 0.00, 14.50, 100.00, 0.00, 302000.00, 3644.00, 3643.00, 3639.00, 3629.00,  ,  ,  ,  ,  ,  ,  ,  ,  ,  ,  ,  , 3645.00, 3628.00, 42.00, 46.00,  ,  , 0, 0, 1, 0, '0000', '01000100', '00000000', '00001000', '00000000', '00000000', '00000000', '00000000', '00000000',
661, 2023-09-25 16:48:38, 0, 0.00, 14.50, 100.00, 0.00, 302000.00, 3645.00, 3643.00, 3636.00, 3626.00,  ,  ,  ,  ,  ,  ,  ,  ,  ,  ,  ,  , 3645.00, 3627.00, 42.00, 44.00,  ,  , 0, 0, 1, 0, '0000', '01000100', '00000000', '00001000', '00000000', '00000000', '00000000', '00000000', '00000000',
667, 2023-09-25 16:48:56, 0, 0.00, 14.50, 100.00, 0.00, 302000.00, 3645.00, 3643.00, 3638.00, 3628.00,  ,  ,  ,  ,  ,  ,  ,  ,  ,  ,  ,  , 3644.00, 3628.00, 42.00, 45.00,  ,  , 0, 0, 1, 0, '0000', '01000100', '00000000', '00001000', '00000000', '00000000', '00000000', '00000000', '00000000',
673, 2023-09-25 16:49:14, 0, 0.00, 14.50, 100.00, 0.00, 302000.00, 3644.00, 3642.00, 3637.00, 3627.00,  ,  ,  ,  ,  ,  ,  ,  ,  ,  ,  ,  , 3645.00, 3627.00, 42.00, 44.00,  ,  , 0, 0, 1, 0, '0000', '01000100', '00000000', '00001000', '00000000', '00000000', '00000000', '00000000', '00000000',
679, 2023-09-25 16:49:32, 0, 0.00, 14.50, 100.00, 0.00, 302000.00, 3645.00, 3643.00, 3638.00, 3628.00,  ,  ,  ,  ,  ,  ,  ,  ,  ,  ,  ,  , 3644.00, 3629.00, 42.00, 44.00,  ,  , 0, 0, 1, 0, '0000', '01000100', '00000000', '00001000', '00000000', '00000000', '00000000', '00000000', '00000000',
685, 2023-09-25 16:49:50, 0, 0.00, 14.50, 100.00, 0.00, 302000.00, 3645.00, 3643.00, 3635.00, 3626.00,  ,  ,  ,  ,  ,  ,  ,  ,  ,  ,  ,  , 3644.00, 3628.00, 42.00, 46.00,  ,  , 0, 0, 1, 0, '0000', '01000100', '00000000', '00001000', '00000000', '00000000', '00000000', '00000000', '00000000',
691, 2023-09-25 16:50:08, 0, 0.00, 14.50, 100.00, 0.00, 302000.00, 3644.00, 3643.00, 3639.00, 3628.00,  ,  ,  ,  ,  ,  ,  ,  ,  ,  ,  ,  , 3645.00, 3628.00, 42.00, 44.00,  ,  , 0, 0, 1, 0, '0000', '01000100', '00000000', '00001000', '00000000', '00000000', '00000000', '00000000', '00000000',
697, 2023-09-25 16:50:26, 0, 0.00, 14.50, 100.00, 0.00, 302000.00, 3644.00, 3643.00, 3637.00, 3627.00,  ,  ,  ,  ,  ,  ,  ,  ,  ,  ,  ,  , 3644.00, 3628.00, 42.00, 44.00,  ,  , 0, 0, 1, 0, '0000', '01000100', '00000000', '00001000', '00000000', '00000000', '00000000', '00000000', '00000000',
703, 2023-09-25 16:50:44, 0, 0.00, 14.50, 100.00, 0.00, 302000.00, 3644.00, 3642.00, 3639.00, 3629.00,  ,  ,  ,  ,  ,  ,  ,  ,  ,  ,  ,  , 3645.00, 3629.00, 42.00, 44.00,  ,  , 0, 0, 1, 0, '0000', '01000100', '00000000', '00001000', '00000000', '00000000', '00000000', '00000000', '00000000',
709, 2023-09-25 16:51:02, 0, 0.00, 14.50, 100.00, 0.00, 302000.00, 3644.00, 3643.00, 3639.00, 3628.00,  ,  ,  ,  ,  ,  ,  ,  ,  ,  ,  ,  , 3645.00, 3628.00, 42.00, 44.00,  ,  , 0, 0, 1, 0, '0000', '01000100', '00000000', '00001000', '00000000', '00000000', '00000000', '00000000', '00000000',
715, 2023-09-25 16:51:20, 0, 0.00, 14.50, 100.00, 0.00, 302000.00, 3643.00, 3643.00, 3639.00, 3628.00,  ,  ,  ,  ,  ,  ,  ,  ,  ,  ,  ,  , 3645.00, 3628.00, 42.00, 46.00,  ,  , 0, 0, 1, 0, '0000', '01000100', '00000000', '00001000', '00000000', '00000000', '00000000', '00000000', '00000000',
721, 2023-09-25 16:51:38, 0, 0.00, 14.50, 100.00, 0.00, 302000.00, 3644.00, 3642.00, 3638.00, 3629.00,  ,  ,  ,  ,  ,  ,  ,  ,  ,  ,  ,  , 3645.00, 3628.00, 42.00, 44.00,  ,  , 0, 0, 1, 0, '0000', '01000100', '00000000', '00001000', '00000000', '00000000', '00000000', '00000000', '00000000',
727, 2023-09-25 16:51:56, 0, 0.00, 14.50, 100.00, 0.00, 302000.00, 3644.00, 3642.00, 3638.00, 3628.00,  ,  ,  ,  ,  ,  ,  ,  ,  ,  ,  ,  , 3645.00, 3628.00, 42.00, 44.00,  ,  , 0, 0, 1, 0, '0000', '01000100', '00000000', '00001000', '00000000', '00000000', '00000000', '00000000', '00000000',
733, 2023-09-25 16:52:14, 0, 0.00, 14.50, 100.00, 0.00, 302000.00, 3645.00, 3643.00, 3639.00, 3628.00,  ,  ,  ,  ,  ,  ,  ,  ,  ,  ,  ,  , 3645.00, 3628.00, 42.00, 44.00,  ,  , 0, 0, 1, 0, '0000', '01000100', '00000000', '00001000', '00000000', '00000000', '00000000', '00000000', '00000000',
739, 2023-09-25 16:52:32, 0, 0.00, 14.50, 100.00, 0.00, 302000.00, 3644.00, 3643.00, 3639.00, 3627.00,  ,  ,  ,  ,  ,  ,  ,  ,  ,  ,  ,  , 3644.00, 3627.00, 42.00, 44.00,  ,  , 0, 0, 1, 0, '0000', '01000100', '00000000', '00001000', '00000000', '00000000', '00000000', '00000000', '00000000',
745, 2023-09-25 16:52:50, 0, 0.00, 14.50, 100.00, 0.00, 302000.00, 3644.00, 3642.00, 3635.00, 3626.00,  ,  ,  ,  ,  ,  ,  ,  ,  ,  ,  ,  , 3644.00, 3627.00, 42.00, 44.00,  ,  , 0, 0, 1, 0, '0000', '01000100', '00000000', '00001000', '00000000', '00000000', '00000000', '00000000', '00000000',
751, 2023-09-25 16:53:07, 0, 0.00, 14.50, 100.00, 0.00, 302000.00, 3644.00, 3643.00, 3636.00, 3627.00,  ,  ,  ,  ,  ,  ,  ,  ,  ,  ,  ,  , 3644.00, 3627.00, 42.00, 44.00,  ,  , 0, 0, 1, 0, '0000', '01000100', '00000000', '00001000', '00000000', '00000000', '00000000', '00000000', '00000000',
757, 2023-09-25 16:53:25, 0, 0.00, 14.50, 100.00, 0.00, 302000.00, 3642.00, 3642.00, 3636.00, 3627.00,  ,  ,  ,  ,  ,  ,  ,  ,  ,  ,  ,  , 3643.00, 3627.00, 44.00, 46.00,  ,  , 0, 0, 1, 0, '0000', '01000100', '00000000', '00001000', '00000000', '00000000', '00000000', '00000000', '00000000',
763, 2023-09-25 16:53:43, 0, 0.00, 14.50, 100.00, 0.00, 302000.00, 3643.00, 3643.00, 3635.00, 3627.00,  ,  ,  ,  ,  ,  ,  ,  ,  ,  ,  ,  , 3644.00, 3627.00, 44.00, 46.00,  ,  , 0, 0, 1, 0, '0000', '01000100', '00000000', '00001000', '00000000', '00000000', '00000000', '00000000', '00000000',
769, 2023-09-25 16:54:01, 0, 0.00, 14.50, 100.00, 0.00, 302000.00, 3644.00, 3643.00, 3635.00, 3627.00,  ,  ,  ,  ,  ,  ,  ,  ,  ,  ,  ,  , 3645.00, 3627.00, 44.00, 46.00,  ,  , 0, 0, 1, 0, '0000', '01000100', '00000000', '00001000', '00000000', '00000000', '00000000', '00000000', '00000000',
775, 2023-09-25 16:54:19, 0, 0.00, 14.50, 100.00, 0.00, 302000.00, 3644.00, 3643.00, 3636.00, 3627.00,  ,  ,  ,  ,  ,  ,  ,  ,  ,  ,  ,  , 3643.00, 3627.00, 44.00, 46.00,  ,  , 0, 0, 1, 0, '0000', '01000100', '00000000', '00001000', '00000000', '00000000', '00000000', '00000000', '00000000',
781, 2023-09-25 16:54:37, 0, 0.00, 14.50, 100.00, 0.00, 302000.00, 3645.00, 3643.00, 3636.00, 3626.00,  ,  ,  ,  ,  ,  ,  ,  ,  ,  ,  ,  , 3645.00, 3627.00, 44.00, 46.00,  ,  , 0, 0, 1, 0, '0000', '01000100', '00000000', '00001000', '00000000', '00000000', '00000000', '00000000', '00000000',
787, 2023-09-25 16:54:55, 0, 0.00, 14.50, 100.00, 0.00, 302000.00, 3645.00, 3643.00, 3637.00, 3627.00,  ,  ,  ,  ,  ,  ,  ,  ,  ,  ,  ,  , 3645.00, 3627.00, 44.00, 46.00,  ,  , 0, 0, 1, 0, '0000', '01000100', '00000000', '00001000', '00000000', '00000000', '00000000', '00000000', '00000000',
793, 2023-09-25 16:55:13, 0, 0.00, 14.50, 100.00, 0.00, 302000.00, 3645.00, 3643.00, 3636.00, 3627.00,  ,  ,  ,  ,  ,  ,  ,  ,  ,  ,  ,  , 3645.00, 3627.00, 44.00, 46.00,  ,  , 0, 0, 1, 0, '0000', '01000100', '00000000', '00001000', '00000000', '00000000', '00000000', '00000000', '00000000',
799, 2023-09-25 16:55:32, 0, 0.00, 14.50, 100.00, 0.00, 302000.00, 3645.00, 3643.00, 3637.00, 3627.00,  ,  ,  ,  ,  ,  ,  ,  ,  ,  ,  ,  , 3645.00, 3627.00, 44.00, 46.00,  ,  , 0, 0, 1, 0, '0000', '01000100', '00000000', '00001000', '00000000', '00000000', '00000000', '00000000', '00000000',
805, 2023-09-25 16:55:50, 0, 0.00, 14.50, 100.00, 0.00, 302000.00, 3645.00, 3643.00, 3636.00, 3627.00,  ,  ,  ,  ,  ,  ,  ,  ,  ,  ,  ,  , 3645.00, 3627.00, 44.00, 46.00,  ,  , 0, 0, 1, 0, '0000', '01000100', '00000000', '00001000', '00000000', '00000000', '00000000', '00000000', '00000000',
811, 2023-09-25 16:56:08, 0, 0.00, 14.50, 100.00, 0.00, 302000.00, 3645.00, 3643.00, 3634.00, 3626.00,  ,  ,  ,  ,  ,  ,  ,  ,  ,  ,  ,  , 3643.00, 3627.00, 44.00, 46.00,  ,  , 0, 0, 1, 0, '0000', '01000100', '00000000', '00001000', '00000000', '00000000', '00000000', '00000000', '00000000',
817, 2023-09-25 16:56:26, 0, 0.00, 14.50, 100.00, 0.00, 302000.00, 3644.00, 3643.00, 3635.00, 3627.00,  ,  ,  ,  ,  ,  ,  ,  ,  ,  ,  ,  , 3645.00, 3627.00, 44.00, 46.00,  ,  , 0, 0, 1, 0, '0000', '01000100', '00000000', '00001000', '00000000', '00000000', '00000000', '00000000', '00000000',
823, 2023-09-25 16:56:44, 0, 0.00, 14.50, 100.00, 0.00, 302000.00, 3645.00, 3643.00, 3635.00, 3627.00,  ,  ,  ,  ,  ,  ,  ,  ,  ,  ,  ,  , 3645.00, 3627.00, 44.00, 46.00,  ,  , 0, 0, 1, 0, '0000', '01000100', '00000000', '00001000', '00000000', '00000000', '00000000', '00000000', '00000000',
829, 2023-09-25 16:57:02, 0, 0.00, 14.50, 100.00, 0.00, 302000.00, 3645.00, 3643.00, 3635.00, 3627.00,  ,  ,  ,  ,  ,  ,  ,  ,  ,  ,  ,  , 3645.00, 3627.00, 44.00, 46.00,  ,  , 0, 0, 1, 0, '0000', '01000100', '00000000', '00001000', '00000000', '00000000', '00000000', '00000000', '00000000',
835, 2023-09-25 16:57:19, 0, 0.00, 14.50, 100.00, 0.00, 302000.00, 3645.00, 3643.00, 3635.00, 3627.00,  ,  ,  ,  ,  ,  ,  ,  ,  ,  ,  ,  , 3645.00, 3627.00, 44.00, 46.00,  ,  , 0, 0, 1, 0, '0000', '01000100', '00000000', '00001000', '00000000', '00000000', '00000000', '00000000', '00000000',
841, 2023-09-25 16:57:38, 0, 0.00, 14.50, 100.00, 0.00, 302000.00, 3644.00, 3643.00, 3635.00, 3626.00,  ,  ,  ,  ,  ,  ,  ,  ,  ,  ,  ,  , 3645.00, 3627.00, 44.00, 46.00,  ,  , 0, 0, 1, 0, '0000', '01000100', '00000000', '00001000', '00000000', '00000000', '00000000', '00000000', '00000000',
847, 2023-09-25 16:57:56, 0, 0.00, 14.50, 100.00, 0.00, 302000.00, 3644.00, 3642.00, 3636.00, 3626.00,  ,  ,  ,  ,  ,  ,  ,  ,  ,  ,  ,  , 3645.00, 3627.00, 44.00, 46.00,  ,  , 0, 0, 1, 0, '0000', '01000100', '00000000', '00001000', '00000000', '00000000', '00000000', '00000000', '00000000',
853, 2023-09-25 16:58:14, 0, 0.00, 14.50, 100.00, 0.00, 302000.00, 3644.00, 3643.00, 3636.00, 3627.00,  ,  ,  ,  ,  ,  ,  ,  ,  ,  ,  ,  , 3645.00, 3627.00, 44.00, 46.00,  ,  , 0, 0, 1, 0, '0000', '01000100', '00000000', '00001000', '00000000', '00000000', '00000000', '00000000', '00000000',
859, 2023-09-25 16:58:32, 0, 0.00, 14.50, 100.00, 0.00, 302000.00, 3644.00, 3643.00, 3636.00, 3627.00,  ,  ,  ,  ,  ,  ,  ,  ,  ,  ,  ,  , 3645.00, 3627.00, 44.00, 46.00,  ,  , 0, 0, 1, 0, '0000', '01000100', '00000000', '00001000', '00000000', '00000000', '00000000', '00000000', '00000000',
865, 2023-09-25 16:58:50, 0, 0.00, 14.50, 100.00, 0.00, 302000.00, 3644.00, 3643.00, 3636.00, 3627.00,  ,  ,  ,  ,  ,  ,  ,  ,  ,  ,  ,  , 3645.00, 3627.00, 44.00, 46.00,  ,  , 0, 0, 1, 0, '0000', '01000100', '00000000', '00001000', '00000000', '00000000', '00000000', '00000000', '00000000',
871, 2023-09-25 16:59:08, 0, 0.00, 14.50, 100.00, 0.00, 302000.00, 3645.00, 3643.00, 3636.00, 3627.00,  ,  ,  ,  ,  ,  ,  ,  ,  ,  ,  ,  , 3645.00, 3627.00, 44.00, 46.00,  ,  , 0, 0, 1, 0, '0000', '01000100', '00000000', '00001000', '00000000', '00000000', '00000000', '00000000', '00000000',
877, 2023-09-25 16:59:26, 0, 0.00, 14.50, 100.00, 0.00, 302000.00, 3645.00, 3643.00, 3637.00, 3627.00,  ,  ,  ,  ,  ,  ,  ,  ,  ,  ,  ,  , 3645.00, 3627.00, 44.00, 46.00,  ,  , 0, 0, 1, 0, '0000', '01000100', '00000000', '00001000', '00000000', '00000000', '00000000', '00000000', '00000000',
883, 2023-09-25 16:59:44, 0, 0.00, 14.50, 100.00, 0.00, 302000.00, 3644.00, 3642.00, 3635.00, 3626.00,  ,  ,  ,  ,  ,  ,  ,  ,  ,  ,  ,  , 3644.00, 3627.00, 44.00, 46.00,  ,  , 0, 0, 1, 0, '0000', '01000100', '00000000', '00001000', '00000000', '00000000', '00000000', '00000000', '00000000',
889, 2023-09-25 17:00:02, 0, 0.00, 14.50, 100.00, 0.00, 302000.00, 3643.00, 3643.00, 3637.00, 3627.00,  ,  ,  ,  ,  ,  ,  ,  ,  ,  ,  ,  , 3643.00, 3627.00, 44.00, 46.00,  ,  , 0, 0, 1, 0, '0000', '01000100', '00000000', '00001000', '00000000', '00000000', '00000000', '00000000', '00000000',
895, 2023-09-25 17:00:20, 0, 0.00, 14.50, 100.00, 0.00, 302000.00, 3643.00, 3643.00, 3638.00, 3627.00,  ,  ,  ,  ,  ,  ,  ,  ,  ,  ,  ,  , 3643.00, 3627.00, 44.00, 44.00,  ,  , 0, 0, 1, 0, '0000', '01000100', '00000000', '00001000', '00000000', '00000000', '00000000', '00000000', '00000000',
901, 2023-09-25 17:00:39, 0, 0.00, 14.50, 100.00, 0.00, 302000.00, 3643.00, 3643.00, 3639.00, 3627.00,  ,  ,  ,  ,  ,  ,  ,  ,  ,  ,  ,  , 3643.00, 3627.00, 44.00, 44.00,  ,  , 0, 0, 1, 0, '0000', '01000100', '00000000', '00001000', '00000000', '00000000', '00000000', '00000000', '00000000',
907, 2023-09-25 17:00:58, 0, 0.00, 14.50, 100.00, 0.00, 302000.00, 3642.00, 3642.00, 3638.00, 3627.00,  ,  ,  ,  ,  ,  ,  ,  ,  ,  ,  ,  , 3643.00, 3627.00, 44.00, 44.00,  ,  , 0, 0, 1, 0, '0000', '01000100', '00000000', '00001000', '00000000', '00000000', '00000000', '00000000', '00000000',
913, 2023-09-25 17:01:16, 0, 0.00, 14.50, 100.00, 0.00, 302000.00, 3643.00, 3643.00, 3639.00, 3627.00,  ,  ,  ,  ,  ,  ,  ,  ,  ,  ,  ,  , 3643.00, 3627.00, 44.00, 44.00,  ,  , 0, 0, 1, 0, '0000', '01000100', '00000000', '00001000', '00000000', '00000000', '00000000', '00000000', '00000000',
919, 2023-09-25 17:01:34, 0, 0.00, 14.50, 100.00, 0.00, 302000.00, 3643.00, 3643.00, 3635.00, 3626.00,  ,  ,  ,  ,  ,  ,  ,  ,  ,  ,  ,  , 3643.00, 3627.00, 44.00, 44.00,  ,  , 0, 0, 1, 0, '0000', '01000100', '00000000', '00001000', '00000000', '00000000', '00000000', '00000000', '00000000',
925, 2023-09-25 17:01:52, 0, 0.00, 14.50, 100.00, 0.00, 302000.00, 3643.00, 3643.00, 3639.00, 3627.00,  ,  ,  ,  ,  ,  ,  ,  ,  ,  ,  ,  , 3643.00, 3627.00, 42.00, 44.00,  ,  , 0, 0, 1, 0, '0000', '01000100', '00000000', '00001000', '00000000', '00000000', '00000000', '00000000', '00000000',
931, 2023-09-25 17:02:10, 0, 0.00, 14.50, 100.00, 0.00, 302000.00, 3643.00, 3643.00, 3639.00, 3628.00,  ,  ,  ,  ,  ,  ,  ,  ,  ,  ,  ,  , 3643.00, 3629.00, 42.00, 42.00,  ,  , 0, 0, 1, 0, '0000', '01000100', '00000000', '00001000', '00000000', '00000000', '00000000', '00000000', '00000000',
937, 2023-09-25 17:02:28, 0, 0.00, 14.50, 100.00, 0.00, 302000.00, 3643.00, 3643.00, 3637.00, 3627.00,  ,  ,  ,  ,  ,  ,  ,  ,  ,  ,  ,  , 3643.00, 3627.00, 42.00, 42.00,  ,  , 0, 0, 1, 0, '0000', '01000100', '00000000', '00001000', '00000000', '00000000', '00000000', '00000000', '00000000',
943, 2023-09-25 17:02:46, 0, 0.00, 14.50, 100.00, 0.00, 302000.00, 3643.00, 3643.00, 3636.00, 3627.00,  ,  ,  ,  ,  ,  ,  ,  ,  ,  ,  ,  , 3643.00, 3627.00, 42.00, 42.00,  ,  , 0, 0, 1, 0, '0000', '01000100', '00000000', '00001000', '00000000', '00000000', '00000000', '00000000', '00000000',
949, 2023-09-25 17:03:05, 0, 0.00, 14.50, 100.00, 0.00, 302000.00, 3643.00, 3643.00, 3636.00, 3626.00,  ,  ,  ,  ,  ,  ,  ,  ,  ,  ,  ,  , 3643.00, 3627.00, 42.00, 42.00,  ,  , 0, 0, 1, 0, '0000', '01000100', '00000000', '00001000', '00000000', '00000000', '00000000', '00000000', '00000000',
955, 2023-09-25 17:03:23, 0, 0.00, 14.50, 100.00, 0.00, 302000.00, 3642.00, 3642.00, 3636.00, 3627.00,  ,  ,  ,  ,  ,  ,  ,  ,  ,  ,  ,  , 3643.00, 3627.00, 42.00, 42.00,  ,  , 0, 0, 1, 0, '0000', '01000100', '00000000', '00001000', '00000000', '00000000', '00000000', '00000000', '00000000',
961, 2023-09-25 17:03:42, 0, 0.00, 14.50, 100.00, 0.00, 302000.00, 3643.00, 3643.00, 3638.00, 3627.00,  ,  ,  ,  ,  ,  ,  ,  ,  ,  ,  ,  , 3643.00, 3627.00, 42.00, 42.00,  ,  , 0, 0, 1, 0, '0000', '01000100', '00000000', '00001000', '00000000', '00000000', '00000000', '00000000', '00000000',
967, 2023-09-25 17:04:00, 0, 0.00, 14.50, 100.00, 0.00, 302000.00, 3643.00, 3642.00, 3635.00, 3627.00,  ,  ,  ,  ,  ,  ,  ,  ,  ,  ,  ,  , 3643.00, 3627.00, 42.00, 42.00,  ,  , 0, 0, 1, 0, '0000', '01000100', '00000000', '00001000', '00000000', '00000000', '00000000', '00000000', '00000000',
973, 2023-09-25 17:04:19, 0, 0.00, 14.50, 100.00, 0.00, 302000.00, 3643.00, 3643.00, 3634.00, 3626.00,  ,  ,  ,  ,  ,  ,  ,  ,  ,  ,  ,  , 3643.00, 3627.00, 42.00, 40.00,  ,  , 0, 0, 1, 0, '0000', '01000100', '00000000', '00001000', '00000000', '00000000', '00000000', '00000000', '00000000',
979, 2023-09-25 17:04:38, 0, 0.00, 14.50, 100.00, 0.00, 302000.00, 3643.00, 3642.00, 3635.00, 3627.00,  ,  ,  ,  ,  ,  ,  ,  ,  ,  ,  ,  , 3643.00, 3627.00, 40.00, 40.00,  ,  , 0, 0, 1, 0, '0000', '01000100', '00000000', '00001000', '00000000', '00000000', '00000000', '00000000', '00000000',
985, 2023-09-25 17:04:56, 0, 0.00, 14.50, 100.00, 0.00, 302000.00, 3643.00, 3641.00, 3635.00, 3627.00,  ,  ,  ,  ,  ,  ,  ,  ,  ,  ,  ,  , 3643.00, 3627.00, 40.00, 40.00,  ,  , 0, 0, 1, 0, '0000', '01000100', '00000000', '00001000', '00000000', '00000000', '00000000', '00000000', '00000000',
991, 2023-09-25 17:05:15, 0, 0.00, 14.50, 100.00, 0.00, 302000.00, 3643.00, 3643.00, 3638.00, 3627.00,  ,  ,  ,  ,  ,  ,  ,  ,  ,  ,  ,  , 3643.00, 3627.00, 40.00, 40.00,  ,  , 0, 0, 1, 0, '0000', '01000100', '00000000', '00001000', '00000000', '00000000', '00000000', '00000000', '00000000',
997, 2023-09-25 17:05:33, 0, 0.00, 14.50, 100.00, 0.00, 302000.00, 3643.00, 3643.00, 3634.00, 3627.00,  ,  ,  ,  ,  ,  ,  ,  ,  ,  ,  ,  , 3643.00, 3627.00, 40.00, 40.00,  ,  , 0, 0, 1, 0, '0000', '01000100', '00000000', '00001000', '00000000', '00000000', '00000000', '00000000', '00000000',
1003, 2023-09-25 17:05:52, 0, 0.00, 14.50, 100.00, 0.00, 302000.00, 3643.00, 3643.00, 3638.00, 3627.00,  ,  ,  ,  ,  ,  ,  ,  ,  ,  ,  ,  , 3643.00, 3627.00, 40.00, 40.00,  ,  , 0, 0, 1, 0, '0000', '01000100', '00000000', '00001000', '00000000', '00000000', '00000000', '00000000', '00000000',
1006, 2023-09-25 17:06:01, 0, 0.00, 14.50, 100.00, 0.00, 302000.00, 3643.00, 3643.00, 3636.00, 3627.00,  ,  ,  ,  ,  ,  ,  ,  ,  ,  ,  ,  , 3643.00, 3627.00, 40.00, 40.00,  ,  , 0, 0, 1, 0, '0000', '01000100', '00000000', '00001000', '00000000', '00000000', '00000000', '00000000', '00000000',