File: Orion/windows/EPData231113_173345.csv
Line #, Timestamp, Battery ID, Current (A), Voltage (V), State Of Charge (%), Total Capacity, Remaining Capacity (AH),Cell Voltage 1 (mV),Cell Voltage 2 (mV),Cell Voltage 3 (mV),Cell Voltage 4 (mV),Cell Voltage 5 (mV),Cell Voltage 6 (mV),Cell Voltage 7 (mV),Cell Voltage 8 (mV),Cell Voltage 9 (mV),Cell Voltage 10 (mV),Cell Voltage 11 (mV),Cell Voltage 12 (mV),Cell Voltage 13 (mV),Cell Voltage 14 (mV),Cell Voltage 15 (mV),Cell Voltage 16 (mV),Highest Cell Voltage (mV), Lowest Cell Voltage (mV),Temperature 1 (C),Temperature 2 (C),Temperature 3 (C),Temperature 4 (C),Charging (1) Discharging (2) Status, Charging MOS Status, Discharging MOS Status, Balancing Status, Cell Balancing Status,Alarm 1,Alarm 2,Alarm 3,Alarm 4,Alarm 5,Alarm 6,Alarm 7,Alarm 8,
1, 2023-11-13 17:33:45, 0, 0.00, 12.80, 50.00, 0.00, 153.60, 0.00, 0.00, 0.00, 0.00, 0.00, 0.00, 0.00, 0.00, 0.00, 0.00, 0.00, 0.00, 0.00, 0.00, 0.00, 0.00, 3202.30, 3201.10, 0.00, 0.00, 0.00, 0.00, 1, 0, 0, 0, '0000000000000000', '', '', '', '', '', '', '', '',
45, 2023-11-13 17:38:48, 0, 420.00, 12.80, 50.00, 0.00, 153.60, 0.00, 0.00, 0.00, 0.00, 0.00, 0.00, 0.00, 0.00, 0.00, 0.00, 0.00, 0.00, 0.00, 0.00, 0.00, 0.00, 3202.00, 3201.00, 0.00, 0.00, 0.00, 0.00, 1, 0, 0, 0, '0000000000000000', '', '', '', '', '', '', '', '',
89, 2023-11-13 17:43:53, 0, 420.00, 12.80, 50.00, 0.00, 153.60, 0.00, 0.00, 0.00, 0.00, 0.00, 0.00, 0.00, 0.00, 0.00, 0.00, 0.00, 0.00, 0.00, 0.00, 0.00, 0.00, 3202.00, 3201.00, 0.00, 0.00, 0.00, 0.00, 1, 0, 0, 0, '0000000000000000', '', '', '', '', '', '', '', '',
133, 2023-11-13 17:48:56, 0, 420.00, 12.80, 50.00, 0.00, 153.60, 0.00, 0.00, 0.00, 0.00, 0.00, 0.00, 0.00, 0.00, 0.00, 0.00, 0.00, 0.00, 0.00, 0.00, 0.00, 0.00, 3201.80, 3201.00, 0.00, 0.00, 0.00, 0.00, 1, 0, 0, 0, '0000000000000000', '', '', '', '', '', '', '', '',
177, 2023-11-13 17:53:59, 0, 420.00, 12.80, 50.00, 0.00, 153.60, 0.00, 0.00, 0.00, 0.00, 0.00, 0.00, 0.00, 0.00, 0.00, 0.00, 0.00, 0.00, 0.00, 0.00, 0.00, 0.00, 3201.90, 3201.00, 0.00, 0.00, 0.00, 0.00, 1, 0, 0, 0, '0000000000000000', '', '', '', '', '', '', '', '',
221, 2023-11-13 17:59:02, 0, 420.00, 12.80, 50.00, 0.00, 153.60, 0.00, 0.00, 0.00, 0.00, 0.00, 0.00, 0.00, 0.00, 0.00, 0.00, 0.00, 0.00, 0.00, 0.00, 0.00, 0.00, 3201.90, 3201.00, 0.00, 0.00, 0.00, 0.00, 1, 0, 0, 0, '0000000000000000', '', '', '', '', '', '', '', '',
265, 2023-11-13 18:04:04, 0, 420.00, 12.80, 50.00, 0.00, 153.60, 0.00, 0.00, 0.00, 0.00, 0.00, 0.00, 0.00, 0.00, 0.00, 0.00, 0.00, 0.00, 0.00, 0.00, 0.00, 0.00, 3201.80, 3200.80, 0.00, 0.00, 0.00, 0.00, 1, 0, 0, 0, '0000000000000000', '', '', '', '', '', '', '', '',
309, 2023-11-13 18:09:07, 0, 420.00, 12.80, 50.00, 0.00, 153.60, 0.00, 0.00, 0.00, 0.00, 0.00, 0.00, 0.00, 0.00, 0.00, 0.00, 0.00, 0.00, 0.00, 0.00, 0.00, 0.00, 3201.70, 3200.70, 0.00, 0.00, 0.00, 0.00, 1, 0, 0, 0, '0000000000000000', '', '', '', '', '', '', '', '',
353, 2023-11-13 18:14:10, 0, 420.00, 12.80, 50.00, 0.00, 153.60, 0.00, 0.00, 0.00, 0.00, 0.00, 0.00, 0.00, 0.00, 0.00, 0.00, 0.00, 0.00, 0.00, 0.00, 0.00, 0.00, 3201.80, 3200.60, 0.00, 0.00, 0.00, 0.00, 1, 0, 0, 0, '0000000000000000', '', '', '', '', '', '', '', '',
397, 2023-11-13 18:19:13, 0, 420.00, 12.80, 50.00, 0.00, 153.60, 0.00, 0.00, 0.00, 0.00, 0.00, 0.00, 0.00, 0.00, 0.00, 0.00, 0.00, 0.00, 0.00, 0.00, 0.00, 0.00, 3201.70, 3200.70, 0.00, 0.00, 0.00, 0.00, 1, 0, 0, 0, '0000000000000000', '', '', '', '', '', '', '', '',
441, 2023-11-13 18:24:15, 0, 420.00, 12.80, 50.00, 0.00, 153.60, 0.00, 0.00, 0.00, 0.00, 0.00, 0.00, 0.00, 0.00, 0.00, 0.00, 0.00, 0.00, 0.00, 0.00, 0.00, 0.00, 3201.60, 3200.50, 0.00, 0.00, 0.00, 0.00, 1, 0, 0, 0, '0000000000000000', '', '', '', '', '', '', '', '',
485, 2023-11-13 18:29:18, 0, 420.00, 12.80, 50.00, 0.00, 153.60, 0.00, 0.00, 0.00, 0.00, 0.00, 0.00, 0.00, 0.00, 0.00, 0.00, 0.00, 0.00, 0.00, 0.00, 0.00, 0.00, 3201.50, 3200.50, 0.00, 0.00, 0.00, 0.00, 1, 0, 0, 0, '0000000000000000', '', '', '', '', '', '', '', '',
529, 2023-11-13 18:34:21, 0, 420.00, 12.80, 50.00, 0.00, 153.60, 0.00, 0.00, 0.00, 0.00, 0.00, 0.00, 0.00, 0.00, 0.00, 0.00, 0.00, 0.00, 0.00, 0.00, 0.00, 0.00, 3201.50, 3200.50, 0.00, 0.00, 0.00, 0.00, 1, 0, 0, 0, '0000000000000000', '', '', '', '', '', '', '', '',
573, 2023-11-13 18:39:24, 0, 420.00, 12.80, 50.00, 0.00, 153.60, 0.00, 0.00, 0.00, 0.00, 0.00, 0.00, 0.00, 0.00, 0.00, 0.00, 0.00, 0.00, 0.00, 0.00, 0.00, 0.00, 3201.40, 3200.40, 0.00, 0.00, 0.00, 0.00, 1, 0, 0, 0, '0000000000000000', '', '', '', '', '', '', '', '',
617, 2023-11-13 18:44:27, 0, 420.00, 12.80, 50.00, 0.00, 153.60, 0.00, 0.00, 0.00, 0.00, 0.00, 0.00, 0.00, 0.00, 0.00, 0.00, 0.00, 0.00, 0.00, 0.00, 0.00, 0.00, 3201.30, 3200.50, 0.00, 0.00, 0.00, 0.00, 1, 0, 0, 0, '0000000000000000', '', '', '', '', '', '', '', '',
661, 2023-11-13 18:49:29, 0, 420.00, 12.80, 50.00, 0.00, 153.60, 0.00, 0.00, 0.00, 0.00, 0.00, 0.00, 0.00, 0.00, 0.00, 0.00, 0.00, 0.00, 0.00, 0.00, 0.00, 0.00, 3201.20, 3200.30, 0.00, 0.00, 0.00, 0.00, 1, 0, 0, 0, '0000000000000000', '', '', '', '', '', '', '', '',
705, 2023-11-13 18:54:32, 0, 420.00, 12.80, 50.00, 0.00, 153.60, 0.00, 0.00, 0.00, 0.00, 0.00, 0.00, 0.00, 0.00, 0.00, 0.00, 0.00, 0.00, 0.00, 0.00, 0.00, 0.00, 3201.30, 3200.30, 0.00, 0.00, 0.00, 0.00, 1, 0, 0, 0, '0000000000000000', '', '', '', '', '', '', '', '',
749, 2023-11-13 18:59:35, 0, 420.00, 12.80, 50.00, 0.00, 153.60, 0.00, 0.00, 0.00, 0.00, 0.00, 0.00, 0.00, 0.00, 0.00, 0.00, 0.00, 0.00, 0.00, 0.00, 0.00, 0.00, 3201.10, 3200.20, 0.00, 0.00, 0.00, 0.00, 1, 0, 0, 0, '0000000000000000', '', '', '', '', '', '', '', '',
793, 2023-11-13 19:04:38, 0, 420.00, 12.80, 50.00, 0.00, 153.60, 0.00, 0.00, 0.00, 0.00, 0.00, 0.00, 0.00, 0.00, 0.00, 0.00, 0.00, 0.00, 0.00, 0.00, 0.00, 0.00, 3201.20, 3200.20, 0.00, 0.00, 0.00, 0.00, 1, 0, 0, 0, '0000000000000000', '', '', '', '', '', '', '', '',
837, 2023-11-13 19:09:40, 0, 420.00, 12.80, 50.00, 0.00, 153.60, 0.00, 0.00, 0.00, 0.00, 0.00, 0.00, 0.00, 0.00, 0.00, 0.00, 0.00, 0.00, 0.00, 0.00, 0.00, 0.00, 3201.20, 3200.00, 0.00, 0.00, 0.00, 0.00, 1, 0, 0, 0, '0000000000000000', '', '', '', '', '', '', '', '',
881, 2023-11-13 19:14:43, 0, 420.00, 12.80, 50.00, 0.00, 153.60, 0.00, 0.00, 0.00, 0.00, 0.00, 0.00, 0.00, 0.00, 0.00, 0.00, 0.00, 0.00, 0.00, 0.00, 0.00, 0.00, 3201.00, 3200.00, 0.00, 0.00, 0.00, 0.00, 1, 0, 0, 0, '0000000000000000', '', '', '', '', '', '', '', '',
925, 2023-11-13 19:19:46, 0, 420.00, 12.80, 50.00, 0.00, 153.60, 0.00, 0.00, 0.00, 0.00, 0.00, 0.00, 0.00, 0.00, 0.00, 0.00, 0.00, 0.00, 0.00, 0.00, 0.00, 0.00, 3201.00, 3200.10, 0.00, 0.00, 0.00, 0.00, 1, 0, 0, 0, '0000000000000000', '', '', '', '', '', '', '', '',
969, 2023-11-13 19:24:48, 0, 420.00, 12.80, 50.00, 0.00, 153.60, 0.00, 0.00, 0.00, 0.00, 0.00, 0.00, 0.00, 0.00, 0.00, 0.00, 0.00, 0.00, 0.00, 0.00, 0.00, 0.00, 3201.00, 3200.00, 0.00, 0.00, 0.00, 0.00, 1, 0, 0, 0, '0000000000000000', '', '', '', '', '', '', '', '',
1013, 2023-11-13 19:29:51, 0, 420.00, 12.80, 50.00, 0.00, 153.60, 0.00, 0.00, 0.00, 0.00, 0.00, 0.00, 0.00, 0.00, 0.00, 0.00, 0.00, 0.00, 0.00, 0.00, 0.00, 0.00, 3200.90, 3200.00, 0.00, 0.00, 0.00, 0.00, 1, 0, 0, 0, '0000000000000000', '', '', '', '', '', '', '', '',
1057, 2023-11-13 19:34:54, 0, 420.00, 12.80, 50.00, 0.00, 153.60, 0.00, 0.00, 0.00, 0.00, 0.00, 0.00, 0.00, 0.00, 0.00, 0.00, 0.00, 0.00, 0.00, 0.00, 0.00, 0.00, 3200.90, 3199.90, 0.00, 0.00, 0.00, 0.00, 1, 0, 0, 0, '0000000000000000', '', '', '', '', '', '', '', '',
1101, 2023-11-13 19:39:56, 0, 420.00, 12.80, 50.00, 0.00, 153.60, 0.00, 0.00, 0.00, 0.00, 0.00, 0.00, 0.00, 0.00, 0.00, 0.00, 0.00, 0.00, 0.00, 0.00, 0.00, 0.00, 3200.90, 3199.90, 0.00, 0.00, 0.00, 0.00, 1, 0, 0, 0, '0000000000000000', '', '', '', '', '', '', '', '',
1145, 2023-11-13 19:44:59, 0, 420.00, 12.80, 50.00, 0.00, 153.60, 0.00, 0.00, 0.00, 0.00, 0.00, 0.00, 0.00, 0.00, 0.00, 0.00, 0.00, 0.00, 0.00, 0.00, 0.00, 0.00, 3200.80, 3199.80, 0.00, 0.00, 0.00, 0.00, 1, 0, 0, 0, '0000000000000000', '', '', '', '', '', '', '', '',
1189, 2023-11-13 19:50:02, 0, 420.00, 12.80, 50.00, 0.00, 153.60, 0.00, 0.00, 0.00, 0.00, 0.00, 0.00, 0.00, 0.00, 0.00, 0.00, 0.00, 0.00, 0.00, 0.00, 0.00, 0.00, 3200.70, 3199.70, 0.00, 0.00, 0.00, 0.00, 1, 0, 0, 0, '0000000000000000', '', '', '', '', '', '', '', '',
1233, 2023-11-13 19:55:04, 0, 420.00, 12.80, 50.00, 0.00, 153.60, 0.00, 0.00, 0.00, 0.00, 0.00, 0.00, 0.00, 0.00, 0.00, 0.00, 0.00, 0.00, 0.00, 0.00, 0.00, 0.00, 3200.70, 3199.80, 0.00, 0.00, 0.00, 0.00, 1, 0, 0, 0, '0000000000000000', '', '', '', '', '', '', '', '',
1277, 2023-11-13 20:00:07, 0, 420.00, 12.80, 50.00, 0.00, 153.60, 0.00, 0.00, 0.00, 0.00, 0.00, 0.00, 0.00, 0.00, 0.00, 0.00, 0.00, 0.00, 0.00, 0.00, 0.00, 0.00, 3200.50, 3199.70, 0.00, 0.00, 0.00, 0.00, 1, 0, 0, 0, '0000000000000000', '', '', '', '', '', '', '', '',
1321, 2023-11-13 20:05:10, 0, 420.00, 12.80, 50.00, 0.00, 153.60, 0.00, 0.00, 0.00, 0.00, 0.00, 0.00, 0.00, 0.00, 0.00, 0.00, 0.00, 0.00, 0.00, 0.00, 0.00, 0.00, 3200.70, 3199.50, 0.00, 0.00, 0.00, 0.00, 1, 0, 0, 0, '0000000000000000', '', '', '', '', '', '', '', '',
1365, 2023-11-13 20:10:13, 0, 420.00, 12.80, 50.00, 0.00, 153.60, 0.00, 0.00, 0.00, 0.00, 0.00, 0.00, 0.00, 0.00, 0.00, 0.00, 0.00, 0.00, 0.00, 0.00, 0.00, 0.00, 3200.50, 3199.50, 0.00, 0.00, 0.00, 0.00, 1, 0, 0, 0, '0000000000000000', '', '', '', '', '', '', '', '',
1409, 2023-11-13 20:15:15, 0, 420.00, 12.80, 50.00, 0.00, 153.60, 0.00, 0.00, 0.00, 0.00, 0.00, 0.00, 0.00, 0.00, 0.00, 0.00, 0.00, 0.00, 0.00, 0.00, 0.00, 0.00, 3200.60, 3199.50, 0.00, 0.00, 0.00, 0.00, 1, 0, 0, 0, '0000000000000000', '', '', '', '', '', '', '', '',
1453, 2023-11-13 20:20:18, 0, 420.00, 12.70, 50.00, 0.00, 152.40, 0.00, 0.00, 0.00, 0.00, 0.00, 0.00, 0.00, 0.00, 0.00, 0.00, 0.00, 0.00, 0.00, 0.00, 0.00, 0.00, 3200.50, 3199.40, 0.00, 0.00, 0.00, 0.00, 1, 0, 0, 0, '0000000000000000', '', '', '', '', '', '', '', '',
1497, 2023-11-13 20:25:21, 0, 420.00, 12.70, 50.00, 0.00, 152.40, 0.00, 0.00, 0.00, 0.00, 0.00, 0.00, 0.00, 0.00, 0.00, 0.00, 0.00, 0.00, 0.00, 0.00, 0.00, 0.00, 3200.40, 3199.40, 0.00, 0.00, 0.00, 0.00, 1, 0, 0, 0, '0000000000000000', '', '', '', '', '', '', '', '',
1541, 2023-11-13 20:30:23, 0, 420.00, 12.70, 50.00, 0.00, 152.40, 0.00, 0.00, 0.00, 0.00, 0.00, 0.00, 0.00, 0.00, 0.00, 0.00, 0.00, 0.00, 0.00, 0.00, 0.00, 0.00, 3200.30, 3199.40, 0.00, 0.00, 0.00, 0.00, 1, 0, 0, 0, '0000000000000000', '', '', '', '', '', '', '', '',
1585, 2023-11-13 20:35:26, 0, 420.00, 12.70, 50.00, 0.00, 152.40, 0.00, 0.00, 0.00, 0.00, 0.00, 0.00, 0.00, 0.00, 0.00, 0.00, 0.00, 0.00, 0.00, 0.00, 0.00, 0.00, 3200.30, 3199.30, 0.00, 0.00, 0.00, 0.00, 1, 0, 0, 0, '0000000000000000', '', '', '', '', '', '', '', '',
1629, 2023-11-13 20:40:29, 0, 420.00, 12.70, 50.00, 0.00, 152.40, 0.00, 0.00, 0.00, 0.00, 0.00, 0.00, 0.00, 0.00, 0.00, 0.00, 0.00, 0.00, 0.00, 0.00, 0.00, 0.00, 3200.30, 3199.30, 0.00, 0.00, 0.00, 0.00, 1, 0, 0, 0, '0000000000000000', '', '', '', '', '', '', '', '',
1673, 2023-11-13 20:45:32, 0, 420.00, 12.70, 50.00, 0.00, 152.40, 0.00, 0.00, 0.00, 0.00, 0.00, 0.00, 0.00, 0.00, 0.00, 0.00, 0.00, 0.00, 0.00, 0.00, 0.00, 0.00, 3200.20, 3199.30, 0.00, 0.00, 0.00, 0.00, 1, 0, 0, 0, '0000000000000000', '', '', '', '', '', '', '', '',
1717, 2023-11-13 20:50:34, 0, 420.00, 12.70, 50.00, 0.00, 152.40, 0.00, 0.00, 0.00, 0.00, 0.00, 0.00, 0.00, 0.00, 0.00, 0.00, 0.00, 0.00, 0.00, 0.00, 0.00, 0.00, 3200.20, 3199.20, 0.00, 0.00, 0.00, 0.00, 1, 0, 0, 0, '0000000000000000', '', '', '', '', '', '', '', '',
1761, 2023-11-13 20:55:37, 0, 420.00, 12.70, 50.00, 0.00, 152.40, 0.00, 0.00, 0.00, 0.00, 0.00, 0.00, 0.00, 0.00, 0.00, 0.00, 0.00, 0.00, 0.00, 0.00, 0.00, 0.00, 3200.20, 3199.20, 0.00, 0.00, 0.00, 0.00, 1, 0, 0, 0, '0000000000000000', '', '', '', '', '', '', '', '',
1805, 2023-11-13 21:00:40, 0, 420.00, 12.70, 50.00, 0.00, 152.40, 0.00, 0.00, 0.00, 0.00, 0.00, 0.00, 0.00, 0.00, 0.00, 0.00, 0.00, 0.00, 0.00, 0.00, 0.00, 0.00, 3200.00, 3199.10, 0.00, 0.00, 0.00, 0.00, 1, 0, 0, 0, '0000000000000000', '', '', '', '', '', '', '', '',
1849, 2023-11-13 21:05:42, 0, 420.00, 12.70, 50.00, 0.00, 152.40, 0.00, 0.00, 0.00, 0.00, 0.00, 0.00, 0.00, 0.00, 0.00, 0.00, 0.00, 0.00, 0.00, 0.00, 0.00, 0.00, 3200.00, 3199.00, 0.00, 0.00, 0.00, 0.00, 1, 0, 0, 0, '0000000000000000', '', '', '', '', '', '', '', '',
1893, 2023-11-13 21:10:45, 0, 420.00, 12.70, 50.00, 0.00, 152.40, 0.00, 0.00, 0.00, 0.00, 0.00, 0.00, 0.00, 0.00, 0.00, 0.00, 0.00, 0.00, 0.00, 0.00, 0.00, 0.00, 3200.00, 3199.10, 0.00, 0.00, 0.00, 0.00, 1, 0, 0, 0, '0000000000000000', '', '', '', '', '', '', '', '',
1937, 2023-11-13 21:15:48, 0, 420.00, 12.70, 50.00, 0.00, 152.40, 0.00, 0.00, 0.00, 0.00, 0.00, 0.00, 0.00, 0.00, 0.00, 0.00, 0.00, 0.00, 0.00, 0.00, 0.00, 0.00, 3200.00, 3199.00, 0.00, 0.00, 0.00, 0.00, 1, 0, 0, 0, '0000000000000000', '', '', '', '', '', '', '', '',
1981, 2023-11-13 21:20:51, 0, 420.00, 12.70, 50.00, 0.00, 152.40, 0.00, 0.00, 0.00, 0.00, 0.00, 0.00, 0.00, 0.00, 0.00, 0.00, 0.00, 0.00, 0.00, 0.00, 0.00, 0.00, 3200.00, 3199.00, 0.00, 0.00, 0.00, 0.00, 1, 0, 0, 0, '0000000000000000', '', '', '', '', '', '', '', '',
2025, 2023-11-13 21:25:53, 0, 420.00, 12.70, 50.00, 0.00, 152.40, 0.00, 0.00, 0.00, 0.00, 0.00, 0.00, 0.00, 0.00, 0.00, 0.00, 0.00, 0.00, 0.00, 0.00, 0.00, 0.00, 3199.90, 3199.00, 0.00, 0.00, 0.00, 0.00, 1, 0, 0, 0, '0000000000000000', '', '', '', '', '', '', '', '',
2069, 2023-11-13 21:30:56, 0, 420.00, 12.70, 50.00, 0.00, 152.40, 0.00, 0.00, 0.00, 0.00, 0.00, 0.00, 0.00, 0.00, 0.00, 0.00, 0.00, 0.00, 0.00, 0.00, 0.00, 0.00, 3199.80, 3198.80, 0.00, 0.00, 0.00, 0.00, 1, 0, 0, 0, '0000000000000000', '', '', '', '', '', '', '', '',
2113, 2023-11-13 21:35:59, 0, 420.00, 12.70, 50.00, 0.00, 152.40, 0.00, 0.00, 0.00, 0.00, 0.00, 0.00, 0.00, 0.00, 0.00, 0.00, 0.00, 0.00, 0.00, 0.00, 0.00, 0.00, 3199.80, 3198.90, 0.00, 0.00, 0.00, 0.00, 1, 0, 0, 0, '0000000000000000', '', '', '', '', '', '', '', '',
2157, 2023-11-13 21:41:02, 0, 420.00, 12.70, 50.00, 0.00, 152.40, 0.00, 0.00, 0.00, 0.00, 0.00, 0.00, 0.00, 0.00, 0.00, 0.00, 0.00, 0.00, 0.00, 0.00, 0.00, 0.00, 3199.70, 3198.80, 0.00, 0.00, 0.00, 0.00, 1, 0, 0, 0, '0000000000000000', '', '', '', '', '', '', '', '',
2201, 2023-11-13 21:46:04, 0, 420.00, 12.70, 50.00, 0.00, 152.40, 0.00, 0.00, 0.00, 0.00, 0.00, 0.00, 0.00, 0.00, 0.00, 0.00, 0.00, 0.00, 0.00, 0.00, 0.00, 0.00, 3199.80, 3198.80, 0.00, 0.00, 0.00, 0.00, 1, 0, 0, 0, '0000000000000000', '', '', '', '', '', '', '', '',
2245, 2023-11-13 21:51:07, 0, 420.00, 12.70, 50.00, 0.00, 152.40, 0.00, 0.00, 0.00, 0.00, 0.00, 0.00, 0.00, 0.00, 0.00, 0.00, 0.00, 0.00, 0.00, 0.00, 0.00, 0.00, 3199.80, 3198.80, 0.00, 0.00, 0.00, 0.00, 1, 0, 0, 0, '0000000000000000', '', '', '', '', '', '', '', '',
2289, 2023-11-13 21:56:10, 0, 420.00, 12.70, 50.00, 0.00, 152.40, 0.00, 0.00, 0.00, 0.00, 0.00, 0.00, 0.00, 0.00, 0.00, 0.00, 0.00, 0.00, 0.00, 0.00, 0.00, 0.00, 3199.50, 3198.70, 0.00, 0.00, 0.00, 0.00, 1, 0, 0, 0, '0000000000000000', '', '', '', '', '', '', '', '',
2333, 2023-11-13 22:01:12, 0, 420.00, 12.70, 50.00, 0.00, 152.40, 0.00, 0.00, 0.00, 0.00, 0.00, 0.00, 0.00, 0.00, 0.00, 0.00, 0.00, 0.00, 0.00, 0.00, 0.00, 0.00, 3199.60, 3198.60, 0.00, 0.00, 0.00, 0.00, 1, 0, 0, 0, '0000000000000000', '', '', '', '', '', '', '', '',
2377, 2023-11-13 22:06:15, 0, 420.00, 12.70, 50.00, 0.00, 152.40, 0.00, 0.00, 0.00, 0.00, 0.00, 0.00, 0.00, 0.00, 0.00, 0.00, 0.00, 0.00, 0.00, 0.00, 0.00, 0.00, 3199.60, 3198.70, 0.00, 0.00, 0.00, 0.00, 1, 0, 0, 0, '0000000000000000', '', '', '', '', '', '', '', '',
2421, 2023-11-13 22:11:18, 0, 420.00, 12.70, 50.00, 0.00, 152.40, 0.00, 0.00, 0.00, 0.00, 0.00, 0.00, 0.00, 0.00, 0.00, 0.00, 0.00, 0.00, 0.00, 0.00, 0.00, 0.00, 3199.50, 3198.50, 0.00, 0.00, 0.00, 0.00, 1, 0, 0, 0, '0000000000000000', '', '', '', '', '', '', '', '',
2465, 2023-11-13 22:16:21, 0, 420.00, 12.70, 50.00, 0.00, 152.40, 0.00, 0.00, 0.00, 0.00, 0.00, 0.00, 0.00, 0.00, 0.00, 0.00, 0.00, 0.00, 0.00, 0.00, 0.00, 0.00, 3199.60, 3198.60, 0.00, 0.00, 0.00, 0.00, 1, 0, 0, 0, '0000000000000000', '', '', '', '', '', '', '', '',
2509, 2023-11-13 22:21:23, 0, 420.00, 12.70, 50.00, 0.00, 152.40, 0.00, 0.00, 0.00, 0.00, 0.00, 0.00, 0.00, 0.00, 0.00, 0.00, 0.00, 0.00, 0.00, 0.00, 0.00, 0.00, 3199.50, 3198.50, 0.00, 0.00, 0.00, 0.00, 1, 0, 0, 0, '0000000000000000', '', '', '', '', '', '', '', '',
2553, 2023-11-13 22:26:26, 0, 420.00, 12.70, 50.00, 0.00, 152.40, 0.00, 0.00, 0.00, 0.00, 0.00, 0.00, 0.00, 0.00, 0.00, 0.00, 0.00, 0.00, 0.00, 0.00, 0.00, 0.00, 3199.40, 3198.50, 0.00, 0.00, 0.00, 0.00, 1, 0, 0, 0, '0000000000000000', '', '', '', '', '', '', '', '',
2597, 2023-11-13 22:31:29, 0, 420.00, 12.70, 50.00, 0.00, 152.40, 0.00, 0.00, 0.00, 0.00, 0.00, 0.00, 0.00, 0.00, 0.00, 0.00, 0.00, 0.00, 0.00, 0.00, 0.00, 0.00, 3199.40, 3198.30, 0.00, 0.00, 0.00, 0.00, 1, 0, 0, 0, '0000000000000000', '', '', '', '', '', '', '', '',
2641, 2023-11-13 22:36:32, 0, 420.00, 12.70, 50.00, 0.00, 152.40, 0.00, 0.00, 0.00, 0.00, 0.00, 0.00, 0.00, 0.00, 0.00, 0.00, 0.00, 0.00, 0.00, 0.00, 0.00, 0.00, 3199.30, 3198.40, 0.00, 0.00, 0.00, 0.00, 1, 0, 0, 0, '0000000000000000', '', '', '', '', '', '', '', '',
2685, 2023-11-13 22:41:34, 0, 420.00, 12.70, 50.00, 0.00, 152.40, 0.00, 0.00, 0.00, 0.00, 0.00, 0.00, 0.00, 0.00, 0.00, 0.00, 0.00, 0.00, 0.00, 0.00, 0.00, 0.00, 3199.20, 3198.40, 0.00, 0.00, 0.00, 0.00, 1, 0, 0, 0, '0000000000000000', '', '', '', '', '', '', '', '',
2729, 2023-11-13 22:46:37, 0, 420.00, 12.70, 50.00, 0.00, 152.40, 0.00, 0.00, 0.00, 0.00, 0.00, 0.00, 0.00, 0.00, 0.00, 0.00, 0.00, 0.00, 0.00, 0.00, 0.00, 0.00, 3199.20, 3198.50, 0.00, 0.00, 0.00, 0.00, 1, 0, 0, 0, '0000000000000000', '', '', '', '', '', '', '', '',
2773, 2023-11-13 22:51:40, 0, 420.00, 12.70, 50.00, 0.00, 152.40, 0.00, 0.00, 0.00, 0.00, 0.00, 0.00, 0.00, 0.00, 0.00, 0.00, 0.00, 0.00, 0.00, 0.00, 0.00, 0.00, 3199.30, 3198.30, 0.00, 0.00, 0.00, 0.00, 1, 0, 0, 0, '0000000000000000', '', '', '', '', '', '', '', '',
2817, 2023-11-13 22:56:42, 0, 420.00, 12.70, 50.00, 0.00, 152.40, 0.00, 0.00, 0.00, 0.00, 0.00, 0.00, 0.00, 0.00, 0.00, 0.00, 0.00, 0.00, 0.00, 0.00, 0.00, 0.00, 3199.10, 3198.40, 0.00, 0.00, 0.00, 0.00, 1, 0, 0, 0, '0000000000000000', '', '', '', '', '', '', '', '',
2861, 2023-11-13 23:01:45, 0, 420.00, 12.70, 50.00, 0.00, 152.40, 0.00, 0.00, 0.00, 0.00, 0.00, 0.00, 0.00, 0.00, 0.00, 0.00, 0.00, 0.00, 0.00, 0.00, 0.00, 0.00, 3199.20, 3198.20, 0.00, 0.00, 0.00, 0.00, 1, 0, 0, 0, '0000000000000000', '', '', '', '', '', '', '', '',
2905, 2023-11-13 23:06:48, 0, 420.00, 12.70, 50.00, 0.00, 152.40, 0.00, 0.00, 0.00, 0.00, 0.00, 0.00, 0.00, 0.00, 0.00, 0.00, 0.00, 0.00, 0.00, 0.00, 0.00, 0.00, 3199.10, 3198.20, 0.00, 0.00, 0.00, 0.00, 1, 0, 0, 0, '0000000000000000', '', '', '', '', '', '', '', '',
2949, 2023-11-13 23:11:51, 0, 420.00, 12.70, 50.00, 0.00, 152.40, 0.00, 0.00, 0.00, 0.00, 0.00, 0.00, 0.00, 0.00, 0.00, 0.00, 0.00, 0.00, 0.00, 0.00, 0.00, 0.00, 3199.10, 3198.20, 0.00, 0.00, 0.00, 0.00, 1, 0, 0, 0, '0000000000000000', '', '', '', '', '', '', '', '',
2993, 2023-11-13 23:16:53, 0, 420.00, 12.70, 50.00, 0.00, 152.40, 0.00, 0.00, 0.00, 0.00, 0.00, 0.00, 0.00, 0.00, 0.00, 0.00, 0.00, 0.00, 0.00, 0.00, 0.00, 0.00, 3199.00, 3198.10, 0.00, 0.00, 0.00, 0.00, 1, 0, 0, 0, '0000000000000000', '', '', '', '', '', '', '', '',
3037, 2023-11-13 23:21:56, 0, 420.00, 12.70, 50.00, 0.00, 152.40, 0.00, 0.00, 0.00, 0.00, 0.00, 0.00, 0.00, 0.00, 0.00, 0.00, 0.00, 0.00, 0.00, 0.00, 0.00, 0.00, 3198.90, 3198.20, 0.00, 0.00, 0.00, 0.00, 1, 0, 0, 0, '0000000000000000', '', '', '', '', '', '', '', '',
3081, 2023-11-13 23:26:59, 0, 420.00, 12.70, 50.00, 0.00, 152.40, 0.00, 0.00, 0.00, 0.00, 0.00, 0.00, 0.00, 0.00, 0.00, 0.00, 0.00, 0.00, 0.00, 0.00, 0.00, 0.00, 3198.90, 3198.10, 0.00, 0.00, 0.00, 0.00, 1, 0, 0, 0, '0000000000000000', '', '', '', '', '', '', '', '',
3125, 2023-11-13 23:32:02, 0, 420.00, 12.70, 50.00, 0.00, 152.40, 0.00, 0.00, 0.00, 0.00, 0.00, 0.00, 0.00, 0.00, 0.00, 0.00, 0.00, 0.00, 0.00, 0.00, 0.00, 0.00, 3198.80, 3198.10, 0.00, 0.00, 0.00, 0.00, 1, 0, 0, 0, '0000000000000000', '', '', '', '', '', '', '', '',
3169, 2023-11-13 23:37:04, 0, 420.00, 12.70, 50.00, 0.00, 152.40, 0.00, 0.00, 0.00, 0.00, 0.00, 0.00, 0.00, 0.00, 0.00, 0.00, 0.00, 0.00, 0.00, 0.00, 0.00, 0.00, 3198.90, 3198.00, 0.00, 0.00, 0.00, 0.00, 1, 0, 0, 0, '0000000000000000', '', '', '', '', '', '', '', '',
3213, 2023-11-13 23:42:07, 0, 420.00, 12.70, 50.00, 0.00, 152.40, 0.00, 0.00, 0.00, 0.00, 0.00, 0.00, 0.00, 0.00, 0.00, 0.00, 0.00, 0.00, 0.00, 0.00, 0.00, 0.00, 3198.80, 3197.90, 0.00, 0.00, 0.00, 0.00, 1, 0, 0, 0, '0000000000000000', '', '', '', '', '', '', '', '',
3257, 2023-11-13 23:47:10, 0, 420.00, 12.70, 50.00, 0.00, 152.40, 0.00, 0.00, 0.00, 0.00, 0.00, 0.00, 0.00, 0.00, 0.00, 0.00, 0.00, 0.00, 0.00, 0.00, 0.00, 0.00, 3198.90, 3197.90, 0.00, 0.00, 0.00, 0.00, 1, 0, 0, 0, '0000000000000000', '', '', '', '', '', '', '', '',
3301, 2023-11-13 23:52:13, 0, 420.00, 12.70, 50.00, 0.00, 152.40, 0.00, 0.00, 0.00, 0.00, 0.00, 0.00, 0.00, 0.00, 0.00, 0.00, 0.00, 0.00, 0.00, 0.00, 0.00, 0.00, 3198.80, 3197.80, 0.00, 0.00, 0.00, 0.00, 1, 0, 0, 0, '0000000000000000', '', '', '', '', '', '', '', '',
3345, 2023-11-13 23:57:15, 0, 420.00, 12.70, 50.00, 0.00, 152.40, 0.00, 0.00, 0.00, 0.00, 0.00, 0.00, 0.00, 0.00, 0.00, 0.00, 0.00, 0.00, 0.00, 0.00, 0.00, 0.00, 3198.70, 3197.80, 0.00, 0.00, 0.00, 0.00, 1, 0, 0, 0, '0000000000000000', '', '', '', '', '', '', '', '',
3389, 2023-11-14 00:02:18, 0, 420.00, 12.70, 50.00, 0.00, 152.40, 0.00, 0.00, 0.00, 0.00, 0.00, 0.00, 0.00, 0.00, 0.00, 0.00, 0.00, 0.00, 0.00, 0.00, 0.00, 0.00, 3198.80, 3197.80, 0.00, 0.00, 0.00, 0.00, 1, 0, 0, 0, '0000000000000000', '', '', '', '', '', '', '', '',
3433, 2023-11-14 00:07:21, 0, 420.00, 12.70, 50.00, 0.00, 152.40, 0.00, 0.00, 0.00, 0.00, 0.00, 0.00, 0.00, 0.00, 0.00, 0.00, 0.00, 0.00, 0.00, 0.00, 0.00, 0.00, 3198.70, 3197.70, 0.00, 0.00, 0.00, 0.00, 1, 0, 0, 0, '0000000000000000', '', '', '', '', '', '', '', '',
3477, 2023-11-14 00:12:23, 0, 420.00, 12.70, 50.00, 0.00, 152.40, 0.00, 0.00, 0.00, 0.00, 0.00, 0.00, 0.00, 0.00, 0.00, 0.00, 0.00, 0.00, 0.00, 0.00, 0.00, 0.00, 3198.60, 3197.70, 0.00, 0.00, 0.00, 0.00, 1, 0, 0, 0, '0000000000000000', '', '', '', '', '', '', '', '',
3521, 2023-11-14 00:17:26, 0, 420.00, 12.70, 50.00, 0.00, 152.40, 0.00, 0.00, 0.00, 0.00, 0.00, 0.00, 0.00, 0.00, 0.00, 0.00, 0.00, 0.00, 0.00, 0.00, 0.00, 0.00, 3198.60, 3197.70, 0.00, 0.00, 0.00, 0.00, 1, 0, 0, 0, '0000000000000000', '', '', '', '', '', '', '', '',
3565, 2023-11-14 00:22:29, 0, 420.00, 12.70, 50.00, 0.00, 152.40, 0.00, 0.00, 0.00, 0.00, 0.00, 0.00, 0.00, 0.00, 0.00, 0.00, 0.00, 0.00, 0.00, 0.00, 0.00, 0.00, 3198.50, 3197.70, 0.00, 0.00, 0.00, 0.00, 1, 0, 0, 0, '0000000000000000', '', '', '', '', '', '', '', '',
3609, 2023-11-14 00:27:31, 0, 420.00, 12.70, 50.00, 0.00, 152.40, 0.00, 0.00, 0.00, 0.00, 0.00, 0.00, 0.00, 0.00, 0.00, 0.00, 0.00, 0.00, 0.00, 0.00, 0.00, 0.00, 3198.60, 3197.60, 0.00, 0.00, 0.00, 0.00, 1, 0, 0, 0, '0000000000000000', '', '', '', '', '', '', '', '',
3653, 2023-11-14 00:32:34, 0, 420.00, 12.70, 50.00, 0.00, 152.40, 0.00, 0.00, 0.00, 0.00, 0.00, 0.00, 0.00, 0.00, 0.00, 0.00, 0.00, 0.00, 0.00, 0.00, 0.00, 0.00, 3198.50, 3197.70, 0.00, 0.00, 0.00, 0.00, 1, 0, 0, 0, '0000000000000000', '', '', '', '', '', '', '', '',
3697, 2023-11-14 00:37:37, 0, 420.00, 12.70, 50.00, 0.00, 152.40, 0.00, 0.00, 0.00, 0.00, 0.00, 0.00, 0.00, 0.00, 0.00, 0.00, 0.00, 0.00, 0.00, 0.00, 0.00, 0.00, 3198.40, 3197.50, 0.00, 0.00, 0.00, 0.00, 1, 0, 0, 0, '0000000000000000', '', '', '', '', '', '', '', '',
3741, 2023-11-14 00:42:40, 0, 420.00, 12.70, 50.00, 0.00, 152.40, 0.00, 0.00, 0.00, 0.00, 0.00, 0.00, 0.00, 0.00, 0.00, 0.00, 0.00, 0.00, 0.00, 0.00, 0.00, 0.00, 3198.40, 3197.50, 0.00, 0.00, 0.00, 0.00, 1, 0, 0, 0, '0000000000000000', '', '', '', '', '', '', '', '',
3785, 2023-11-14 00:47:42, 0, 420.00, 12.70, 50.00, 0.00, 152.40, 0.00, 0.00, 0.00, 0.00, 0.00, 0.00, 0.00, 0.00, 0.00, 0.00, 0.00, 0.00, 0.00, 0.00, 0.00, 0.00, 3198.30, 3197.50, 0.00, 0.00, 0.00, 0.00, 1, 0, 0, 0, '0000000000000000', '', '', '', '', '', '', '', '',
3829, 2023-11-14 00:52:45, 0, 420.00, 12.70, 50.00, 0.00, 152.40, 0.00, 0.00, 0.00, 0.00, 0.00, 0.00, 0.00, 0.00, 0.00, 0.00, 0.00, 0.00, 0.00, 0.00, 0.00, 0.00, 3198.40, 3197.60, 0.00, 0.00, 0.00, 0.00, 1, 0, 0, 0, '0000000000000000', '', '', '', '', '', '', '', '',
3873, 2023-11-14 00:57:48, 0, 420.00, 12.70, 50.00, 0.00, 152.40, 0.00, 0.00, 0.00, 0.00, 0.00, 0.00, 0.00, 0.00, 0.00, 0.00, 0.00, 0.00, 0.00, 0.00, 0.00, 0.00, 3198.30, 3197.50, 0.00, 0.00, 0.00, 0.00, 1, 0, 0, 0, '0000000000000000', '', '', '', '', '', '', '', '',
3917, 2023-11-14 01:02:51, 0, 420.00, 12.70, 50.00, 0.00, 152.40, 0.00, 0.00, 0.00, 0.00, 0.00, 0.00, 0.00, 0.00, 0.00, 0.00, 0.00, 0.00, 0.00, 0.00, 0.00, 0.00, 3198.30, 3197.50, 0.00, 0.00, 0.00, 0.00, 1, 0, 0, 0, '0000000000000000', '', '', '', '', '', '', '', '',
3961, 2023-11-14 01:07:53, 0, 420.00, 12.70, 50.00, 0.00, 152.40, 0.00, 0.00, 0.00, 0.00, 0.00, 0.00, 0.00, 0.00, 0.00, 0.00, 0.00, 0.00, 0.00, 0.00, 0.00, 0.00, 3198.30, 3197.40, 0.00, 0.00, 0.00, 0.00, 1, 0, 0, 0, '0000000000000000', '', '', '', '', '', '', '', '',
4005, 2023-11-14 01:12:56, 0, 420.00, 12.70, 50.00, 0.00, 152.40, 0.00, 0.00, 0.00, 0.00, 0.00, 0.00, 0.00, 0.00, 0.00, 0.00, 0.00, 0.00, 0.00, 0.00, 0.00, 0.00, 3198.30, 3197.40, 0.00, 0.00, 0.00, 0.00, 1, 0, 0, 0, '0000000000000000', '', '', '', '', '', '', '', '',
4049, 2023-11-14 01:17:59, 0, 420.00, 12.70, 50.00, 0.00, 152.40, 0.00, 0.00, 0.00, 0.00, 0.00, 0.00, 0.00, 0.00, 0.00, 0.00, 0.00, 0.00, 0.00, 0.00, 0.00, 0.00, 3198.10, 3197.40, 0.00, 0.00, 0.00, 0.00, 1, 0, 0, 0, '0000000000000000', '', '', '', '', '', '', '', '',
4093, 2023-11-14 01:23:02, 0, 420.00, 12.70, 50.00, 0.00, 152.40, 0.00, 0.00, 0.00, 0.00, 0.00, 0.00, 0.00, 0.00, 0.00, 0.00, 0.00, 0.00, 0.00, 0.00, 0.00, 0.00, 3198.30, 3197.40, 0.00, 0.00, 0.00, 0.00, 1, 0, 0, 0, '0000000000000000', '', '', '', '', '', '', '', '',
4137, 2023-11-14 01:28:04, 0, 420.00, 12.70, 50.00, 0.00, 152.40, 0.00, 0.00, 0.00, 0.00, 0.00, 0.00, 0.00, 0.00, 0.00, 0.00, 0.00, 0.00, 0.00, 0.00, 0.00, 0.00, 3198.10, 3197.40, 0.00, 0.00, 0.00, 0.00, 1, 0, 0, 0, '0000000000000000', '', '', '', '', '', '', '', '',
4181, 2023-11-14 01:33:07, 0, 420.00, 12.70, 50.00, 0.00, 152.40, 0.00, 0.00, 0.00, 0.00, 0.00, 0.00, 0.00, 0.00, 0.00, 0.00, 0.00, 0.00, 0.00, 0.00, 0.00, 0.00, 3198.10, 3197.30, 0.00, 0.00, 0.00, 0.00, 1, 0, 0, 0, '0000000000000000', '', '', '', '', '', '', '', '',
4225, 2023-11-14 01:38:10, 0, 420.00, 12.70, 50.00, 0.00, 152.40, 0.00, 0.00, 0.00, 0.00, 0.00, 0.00, 0.00, 0.00, 0.00, 0.00, 0.00, 0.00, 0.00, 0.00, 0.00, 0.00, 3198.10, 3197.30, 0.00, 0.00, 0.00, 0.00, 1, 0, 0, 0, '0000000000000000', '', '', '', '', '', '', '', '',
4269, 2023-11-14 01:43:12, 0, 420.00, 12.70, 50.00, 0.00, 152.40, 0.00, 0.00, 0.00, 0.00, 0.00, 0.00, 0.00, 0.00, 0.00, 0.00, 0.00, 0.00, 0.00, 0.00, 0.00, 0.00, 3198.10, 3197.20, 0.00, 0.00, 0.00, 0.00, 1, 0, 0, 0, '0000000000000000', '', '', '', '', '', '', '', '',
4313, 2023-11-14 01:48:15, 0, 420.00, 12.70, 50.00, 0.00, 152.40, 0.00, 0.00, 0.00, 0.00, 0.00, 0.00, 0.00, 0.00, 0.00, 0.00, 0.00, 0.00, 0.00, 0.00, 0.00, 0.00, 3198.10, 3197.30, 0.00, 0.00, 0.00, 0.00, 1, 0, 0, 0, '0000000000000000', '', '', '', '', '', '', '', '',
4357, 2023-11-14 01:53:18, 0, 420.00, 12.70, 50.00, 0.00, 152.40, 0.00, 0.00, 0.00, 0.00, 0.00, 0.00, 0.00, 0.00, 0.00, 0.00, 0.00, 0.00, 0.00, 0.00, 0.00, 0.00, 3198.00, 3197.20, 0.00, 0.00, 0.00, 0.00, 1, 0, 0, 0, '0000000000000000', '', '', '', '', '', '', '', '',
4401, 2023-11-14 01:58:20, 0, 420.00, 12.70, 50.00, 0.00, 152.40, 0.00, 0.00, 0.00, 0.00, 0.00, 0.00, 0.00, 0.00, 0.00, 0.00, 0.00, 0.00, 0.00, 0.00, 0.00, 0.00, 3198.00, 3197.20, 0.00, 0.00, 0.00, 0.00, 1, 0, 0, 0, '0000000000000000', '', '', '', '', '', '', '', '',
4445, 2023-11-14 02:03:23, 0, 420.00, 12.70, 50.00, 0.00, 152.40, 0.00, 0.00, 0.00, 0.00, 0.00, 0.00, 0.00, 0.00, 0.00, 0.00, 0.00, 0.00, 0.00, 0.00, 0.00, 0.00, 3198.00, 3197.20, 0.00, 0.00, 0.00, 0.00, 1, 0, 0, 0, '0000000000000000', '', '', '', '', '', '', '', '',
4489, 2023-11-14 02:08:26, 0, 420.00, 12.70, 50.00, 0.00, 152.40, 0.00, 0.00, 0.00, 0.00, 0.00, 0.00, 0.00, 0.00, 0.00, 0.00, 0.00, 0.00, 0.00, 0.00, 0.00, 0.00, 3197.90, 3197.20, 0.00, 0.00, 0.00, 0.00, 1, 0, 0, 0, '0000000000000000', '', '', '', '', '', '', '', '',
4533, 2023-11-14 02:13:28, 0, 420.00, 12.70, 50.00, 0.00, 152.40, 0.00, 0.00, 0.00, 0.00, 0.00, 0.00, 0.00, 0.00, 0.00, 0.00, 0.00, 0.00, 0.00, 0.00, 0.00, 0.00, 3197.90, 3197.10, 0.00, 0.00, 0.00, 0.00, 1, 0, 0, 0, '0000000000000000', '', '', '', '', '', '', '', '',
4577, 2023-11-14 02:18:31, 0, 420.00, 12.70, 50.00, 0.00, 152.40, 0.00, 0.00, 0.00, 0.00, 0.00, 0.00, 0.00, 0.00, 0.00, 0.00, 0.00, 0.00, 0.00, 0.00, 0.00, 0.00, 3198.00, 3197.10, 0.00, 0.00, 0.00, 0.00, 1, 0, 0, 0, '0000000000000000', '', '', '', '', '', '', '', '',
4621, 2023-11-14 02:23:34, 0, 420.00, 12.70, 50.00, 0.00, 152.40, 0.00, 0.00, 0.00, 0.00, 0.00, 0.00, 0.00, 0.00, 0.00, 0.00, 0.00, 0.00, 0.00, 0.00, 0.00, 0.00, 3197.90, 3197.00, 0.00, 0.00, 0.00, 0.00, 1, 0, 0, 0, '0000000000000000', '', '', '', '', '', '', '', '',
4665, 2023-11-14 02:28:37, 0, 420.00, 12.70, 50.00, 0.00, 152.40, 0.00, 0.00, 0.00, 0.00, 0.00, 0.00, 0.00, 0.00, 0.00, 0.00, 0.00, 0.00, 0.00, 0.00, 0.00, 0.00, 3197.80, 3196.90, 0.00, 0.00, 0.00, 0.00, 1, 0, 0, 0, '0000000000000000', '', '', '', '', '', '', '', '',
4709, 2023-11-14 02:33:39, 0, 420.00, 12.70, 50.00, 0.00, 152.40, 0.00, 0.00, 0.00, 0.00, 0.00, 0.00, 0.00, 0.00, 0.00, 0.00, 0.00, 0.00, 0.00, 0.00, 0.00, 0.00, 3197.80, 3197.10, 0.00, 0.00, 0.00, 0.00, 1, 0, 0, 0, '0000000000000000', '', '', '', '', '', '', '', '',
4753, 2023-11-14 02:38:42, 0, 420.00, 12.70, 50.00, 0.00, 152.40, 0.00, 0.00, 0.00, 0.00, 0.00, 0.00, 0.00, 0.00, 0.00, 0.00, 0.00, 0.00, 0.00, 0.00, 0.00, 0.00, 3197.80, 3197.00, 0.00, 0.00, 0.00, 0.00, 1, 0, 0, 0, '0000000000000000', '', '', '', '', '', '', '', '',
4797, 2023-11-14 02:43:45, 0, 420.00, 12.70, 50.00, 0.00, 152.40, 0.00, 0.00, 0.00, 0.00, 0.00, 0.00, 0.00, 0.00, 0.00, 0.00, 0.00, 0.00, 0.00, 0.00, 0.00, 0.00, 3197.80, 3197.00, 0.00, 0.00, 0.00, 0.00, 1, 0, 0, 0, '0000000000000000', '', '', '', '', '', '', '', '',
4841, 2023-11-14 02:48:48, 0, 420.00, 12.70, 50.00, 0.00, 152.40, 0.00, 0.00, 0.00, 0.00, 0.00, 0.00, 0.00, 0.00, 0.00, 0.00, 0.00, 0.00, 0.00, 0.00, 0.00, 0.00, 3197.80, 3197.00, 0.00, 0.00, 0.00, 0.00, 1, 0, 0, 0, '0000000000000000', '', '', '', '', '', '', '', '',
4885, 2023-11-14 02:53:50, 0, 420.00, 12.70, 50.00, 0.00, 152.40, 0.00, 0.00, 0.00, 0.00, 0.00, 0.00, 0.00, 0.00, 0.00, 0.00, 0.00, 0.00, 0.00, 0.00, 0.00, 0.00, 3197.80, 3197.00, 0.00, 0.00, 0.00, 0.00, 1, 0, 0, 0, '0000000000000000', '', '', '', '', '', '', '', '',
4929, 2023-11-14 02:58:53, 0, 420.00, 12.70, 50.00, 0.00, 152.40, 0.00, 0.00, 0.00, 0.00, 0.00, 0.00, 0.00, 0.00, 0.00, 0.00, 0.00, 0.00, 0.00, 0.00, 0.00, 0.00, 3197.60, 3196.90, 0.00, 0.00, 0.00, 0.00, 1, 0, 0, 0, '0000000000000000', '', '', '', '', '', '', '', '',
4973, 2023-11-14 03:03:56, 0, 420.00, 12.70, 50.00, 0.00, 152.40, 0.00, 0.00, 0.00, 0.00, 0.00, 0.00, 0.00, 0.00, 0.00, 0.00, 0.00, 0.00, 0.00, 0.00, 0.00, 0.00, 3197.60, 3196.80, 0.00, 0.00, 0.00, 0.00, 1, 0, 0, 0, '0000000000000000', '', '', '', '', '', '', '', '',
5017, 2023-11-14 03:08:58, 0, 420.00, 12.70, 50.00, 0.00, 152.40, 0.00, 0.00, 0.00, 0.00, 0.00, 0.00, 0.00, 0.00, 0.00, 0.00, 0.00, 0.00, 0.00, 0.00, 0.00, 0.00, 3197.60, 3196.80, 0.00, 0.00, 0.00, 0.00, 1, 0, 0, 0, '0000000000000000', '', '', '', '', '', '', '', '',
5061, 2023-11-14 03:14:01, 0, 420.00, 12.70, 50.00, 0.00, 152.40, 0.00, 0.00, 0.00, 0.00, 0.00, 0.00, 0.00, 0.00, 0.00, 0.00, 0.00, 0.00, 0.00, 0.00, 0.00, 0.00, 3197.60, 3196.80, 0.00, 0.00, 0.00, 0.00, 1, 0, 0, 0, '0000000000000000', '', '', '', '', '', '', '', '',
5105, 2023-11-14 03:19:04, 0, 420.00, 12.70, 50.00, 0.00, 152.40, 0.00, 0.00, 0.00, 0.00, 0.00, 0.00, 0.00, 0.00, 0.00, 0.00, 0.00, 0.00, 0.00, 0.00, 0.00, 0.00, 3197.50, 3196.80, 0.00, 0.00, 0.00, 0.00, 1, 0, 0, 0, '0000000000000000', '', '', '', '', '', '', '', '',
5149, 2023-11-14 03:24:07, 0, 420.00, 12.70, 50.00, 0.00, 152.40, 0.00, 0.00, 0.00, 0.00, 0.00, 0.00, 0.00, 0.00, 0.00, 0.00, 0.00, 0.00, 0.00, 0.00, 0.00, 0.00, 3197.60, 3196.80, 0.00, 0.00, 0.00, 0.00, 1, 0, 0, 0, '0000000000000000', '', '', '', '', '', '', '', '',
5193, 2023-11-14 03:29:10, 0, 420.00, 12.70, 50.00, 0.00, 152.40, 0.00, 0.00, 0.00, 0.00, 0.00, 0.00, 0.00, 0.00, 0.00, 0.00, 0.00, 0.00, 0.00, 0.00, 0.00, 0.00, 3197.50, 3196.60, 0.00, 0.00, 0.00, 0.00, 1, 0, 0, 0, '0000000000000000', '', '', '', '', '', '', '', '',
5237, 2023-11-14 03:34:12, 0, 420.00, 12.70, 50.00, 0.00, 152.40, 0.00, 0.00, 0.00, 0.00, 0.00, 0.00, 0.00, 0.00, 0.00, 0.00, 0.00, 0.00, 0.00, 0.00, 0.00, 0.00, 3197.60, 3196.70, 0.00, 0.00, 0.00, 0.00, 1, 0, 0, 0, '0000000000000000', '', '', '', '', '', '', '', '',
5281, 2023-11-14 03:39:15, 0, 420.00, 12.70, 50.00, 0.00, 152.40, 0.00, 0.00, 0.00, 0.00, 0.00, 0.00, 0.00, 0.00, 0.00, 0.00, 0.00, 0.00, 0.00, 0.00, 0.00, 0.00, 3197.50, 3196.70, 0.00, 0.00, 0.00, 0.00, 1, 0, 0, 0, '0000000000000000', '', '', '', '', '', '', '', '',
5325, 2023-11-14 03:44:18, 0, 420.00, 12.70, 50.00, 0.00, 152.40, 0.00, 0.00, 0.00, 0.00, 0.00, 0.00, 0.00, 0.00, 0.00, 0.00, 0.00, 0.00, 0.00, 0.00, 0.00, 0.00, 3197.60, 3196.60, 0.00, 0.00, 0.00, 0.00, 1, 0, 0, 0, '0000000000000000', '', '', '', '', '', '', '', '',
5369, 2023-11-14 03:49:21, 0, 420.00, 12.70, 50.00, 0.00, 152.40, 0.00, 0.00, 0.00, 0.00, 0.00, 0.00, 0.00, 0.00, 0.00, 0.00, 0.00, 0.00, 0.00, 0.00, 0.00, 0.00, 3197.50, 3196.60, 0.00, 0.00, 0.00, 0.00, 1, 0, 0, 0, '0000000000000000', '', '', '', '', '', '', '', '',
5413, 2023-11-14 03:54:23, 0, 420.00, 12.70, 50.00, 0.00, 152.40, 0.00, 0.00, 0.00, 0.00, 0.00, 0.00, 0.00, 0.00, 0.00, 0.00, 0.00, 0.00, 0.00, 0.00, 0.00, 0.00, 3197.50, 3196.60, 0.00, 0.00, 0.00, 0.00, 1, 0, 0, 0, '0000000000000000', '', '', '', '', '', '', '', '',
5457, 2023-11-14 03:59:26, 0, 420.00, 12.70, 50.00, 0.00, 152.40, 0.00, 0.00, 0.00, 0.00, 0.00, 0.00, 0.00, 0.00, 0.00, 0.00, 0.00, 0.00, 0.00, 0.00, 0.00, 0.00, 3197.40, 3196.60, 0.00, 0.00, 0.00, 0.00, 1, 0, 0, 0, '0000000000000000', '', '', '', '', '', '', '', '',
5501, 2023-11-14 04:04:29, 0, 420.00, 12.70, 50.00, 0.00, 152.40, 0.00, 0.00, 0.00, 0.00, 0.00, 0.00, 0.00, 0.00, 0.00, 0.00, 0.00, 0.00, 0.00, 0.00, 0.00, 0.00, 3197.30, 3196.50, 0.00, 0.00, 0.00, 0.00, 1, 0, 0, 0, '0000000000000000', '', '', '', '', '', '', '', '',
5545, 2023-11-14 04:09:32, 0, 420.00, 12.70, 50.00, 0.00, 152.40, 0.00, 0.00, 0.00, 0.00, 0.00, 0.00, 0.00, 0.00, 0.00, 0.00, 0.00, 0.00, 0.00, 0.00, 0.00, 0.00, 3197.40, 3196.60, 0.00, 0.00, 0.00, 0.00, 1, 0, 0, 0, '0000000000000000', '', '', '', '', '', '', '', '',
5589, 2023-11-14 04:14:34, 0, 420.00, 12.70, 50.00, 0.00, 152.40, 0.00, 0.00, 0.00, 0.00, 0.00, 0.00, 0.00, 0.00, 0.00, 0.00, 0.00, 0.00, 0.00, 0.00, 0.00, 0.00, 3197.30, 3196.40, 0.00, 0.00, 0.00, 0.00, 1, 0, 0, 0, '0000000000000000', '', '', '', '', '', '', '', '',
5633, 2023-11-14 04:19:37, 0, 420.00, 12.70, 50.00, 0.00, 152.40, 0.00, 0.00, 0.00, 0.00, 0.00, 0.00, 0.00, 0.00, 0.00, 0.00, 0.00, 0.00, 0.00, 0.00, 0.00, 0.00, 3197.40, 3196.50, 0.00, 0.00, 0.00, 0.00, 1, 0, 0, 0, '0000000000000000', '', '', '', '', '', '', '', '',
5677, 2023-11-14 04:24:40, 0, 420.00, 12.70, 50.00, 0.00, 152.40, 0.00, 0.00, 0.00, 0.00, 0.00, 0.00, 0.00, 0.00, 0.00, 0.00, 0.00, 0.00, 0.00, 0.00, 0.00, 0.00, 3197.30, 3196.50, 0.00, 0.00, 0.00, 0.00, 1, 0, 0, 0, '0000000000000000', '', '', '', '', '', '', '', '',
5721, 2023-11-14 04:29:42, 0, 420.00, 12.70, 50.00, 0.00, 152.40, 0.00, 0.00, 0.00, 0.00, 0.00, 0.00, 0.00, 0.00, 0.00, 0.00, 0.00, 0.00, 0.00, 0.00, 0.00, 0.00, 3197.30, 3196.50, 0.00, 0.00, 0.00, 0.00, 1, 0, 0, 0, '0000000000000000', '', '', '', '', '', '', '', '',
5765, 2023-11-14 04:34:45, 0, 420.00, 12.70, 50.00, 0.00, 152.40, 0.00, 0.00, 0.00, 0.00, 0.00, 0.00, 0.00, 0.00, 0.00, 0.00, 0.00, 0.00, 0.00, 0.00, 0.00, 0.00, 3197.30, 3196.40, 0.00, 0.00, 0.00, 0.00, 1, 0, 0, 0, '0000000000000000', '', '', '', '', '', '', '', '',
5809, 2023-11-14 04:39:48, 0, 420.00, 12.70, 50.00, 0.00, 152.40, 0.00, 0.00, 0.00, 0.00, 0.00, 0.00, 0.00, 0.00, 0.00, 0.00, 0.00, 0.00, 0.00, 0.00, 0.00, 0.00, 3197.20, 3196.40, 0.00, 0.00, 0.00, 0.00, 1, 0, 0, 0, '0000000000000000', '', '', '', '', '', '', '', '',
5853, 2023-11-14 04:44:51, 0, 420.00, 12.70, 50.00, 0.00, 152.40, 0.00, 0.00, 0.00, 0.00, 0.00, 0.00, 0.00, 0.00, 0.00, 0.00, 0.00, 0.00, 0.00, 0.00, 0.00, 0.00, 3197.20, 3196.40, 0.00, 0.00, 0.00, 0.00, 1, 0, 0, 0, '0000000000000000', '', '', '', '', '', '', '', '',
5897, 2023-11-14 04:49:53, 0, 420.00, 12.70, 50.00, 0.00, 152.40, 0.00, 0.00, 0.00, 0.00, 0.00, 0.00, 0.00, 0.00, 0.00, 0.00, 0.00, 0.00, 0.00, 0.00, 0.00, 0.00, 3197.20, 3196.50, 0.00, 0.00, 0.00, 0.00, 1, 0, 0, 0, '0000000000000000', '', '', '', '', '', '', '', '',
5941, 2023-11-14 04:54:56, 0, 420.00, 12.70, 50.00, 0.00, 152.40, 0.00, 0.00, 0.00, 0.00, 0.00, 0.00, 0.00, 0.00, 0.00, 0.00, 0.00, 0.00, 0.00, 0.00, 0.00, 0.00, 3197.30, 3196.40, 0.00, 0.00, 0.00, 0.00, 1, 0, 0, 0, '0000000000000000', '', '', '', '', '', '', '', '',
5985, 2023-11-14 04:59:59, 0, 420.00, 12.70, 50.00, 0.00, 152.40, 0.00, 0.00, 0.00, 0.00, 0.00, 0.00, 0.00, 0.00, 0.00, 0.00, 0.00, 0.00, 0.00, 0.00, 0.00, 0.00, 3197.20, 3196.40, 0.00, 0.00, 0.00, 0.00, 1, 0, 0, 0, '0000000000000000', '', '', '', '', '', '', '', '',
6029, 2023-11-14 05:05:01, 0, 420.00, 12.70, 50.00, 0.00, 152.40, 0.00, 0.00, 0.00, 0.00, 0.00, 0.00, 0.00, 0.00, 0.00, 0.00, 0.00, 0.00, 0.00, 0.00, 0.00, 0.00, 3197.10, 3196.40, 0.00, 0.00, 0.00, 0.00, 1, 0, 0, 0, '0000000000000000', '', '', '', '', '', '', '', '',
6073, 2023-11-14 05:10:04, 0, 420.00, 12.70, 50.00, 0.00, 152.40, 0.00, 0.00, 0.00, 0.00, 0.00, 0.00, 0.00, 0.00, 0.00, 0.00, 0.00, 0.00, 0.00, 0.00, 0.00, 0.00, 3197.20, 3196.40, 0.00, 0.00, 0.00, 0.00, 1, 0, 0, 0, '0000000000000000', '', '', '', '', '', '', '', '',
6117, 2023-11-14 05:15:07, 0, 420.00, 12.70, 50.00, 0.00, 152.40, 0.00, 0.00, 0.00, 0.00, 0.00, 0.00, 0.00, 0.00, 0.00, 0.00, 0.00, 0.00, 0.00, 0.00, 0.00, 0.00, 3197.00, 3196.40, 0.00, 0.00, 0.00, 0.00, 1, 0, 0, 0, '0000000000000000', '', '', '', '', '', '', '', '',
6161, 2023-11-14 05:20:09, 0, 420.00, 12.70, 50.00, 0.00, 152.40, 0.00, 0.00, 0.00, 0.00, 0.00, 0.00, 0.00, 0.00, 0.00, 0.00, 0.00, 0.00, 0.00, 0.00, 0.00, 0.00, 3197.00, 3196.30, 0.00, 0.00, 0.00, 0.00, 1, 0, 0, 0, '0000000000000000', '', '', '', '', '', '', '', '',
6205, 2023-11-14 05:25:12, 0, 420.00, 12.70, 50.00, 0.00, 152.40, 0.00, 0.00, 0.00, 0.00, 0.00, 0.00, 0.00, 0.00, 0.00, 0.00, 0.00, 0.00, 0.00, 0.00, 0.00, 0.00, 3197.10, 3196.20, 0.00, 0.00, 0.00, 0.00, 1, 0, 0, 0, '0000000000000000', '', '', '', '', '', '', '', '',
6249, 2023-11-14 05:30:15, 0, 420.00, 12.70, 50.00, 0.00, 152.40, 0.00, 0.00, 0.00, 0.00, 0.00, 0.00, 0.00, 0.00, 0.00, 0.00, 0.00, 0.00, 0.00, 0.00, 0.00, 0.00, 3197.00, 3196.40, 0.00, 0.00, 0.00, 0.00, 1, 0, 0, 0, '0000000000000000', '', '', '', '', '', '', '', '',
6293, 2023-11-14 05:35:17, 0, 420.00, 12.70, 50.00, 0.00, 152.40, 0.00, 0.00, 0.00, 0.00, 0.00, 0.00, 0.00, 0.00, 0.00, 0.00, 0.00, 0.00, 0.00, 0.00, 0.00, 0.00, 3197.00, 3196.20, 0.00, 0.00, 0.00, 0.00, 1, 0, 0, 0, '0000000000000000', '', '', '', '', '', '', '', '',
6337, 2023-11-14 05:40:20, 0, 420.00, 12.70, 50.00, 0.00, 152.40, 0.00, 0.00, 0.00, 0.00, 0.00, 0.00, 0.00, 0.00, 0.00, 0.00, 0.00, 0.00, 0.00, 0.00, 0.00, 0.00, 3197.00, 3196.20, 0.00, 0.00, 0.00, 0.00, 1, 0, 0, 0, '0000000000000000', '', '', '', '', '', '', '', '',
6381, 2023-11-14 05:45:23, 0, 420.00, 12.70, 50.00, 0.00, 152.40, 0.00, 0.00, 0.00, 0.00, 0.00, 0.00, 0.00, 0.00, 0.00, 0.00, 0.00, 0.00, 0.00, 0.00, 0.00, 0.00, 3197.00, 3196.20, 0.00, 0.00, 0.00, 0.00, 1, 0, 0, 0, '0000000000000000', '', '', '', '', '', '', '', '',
6425, 2023-11-14 05:50:26, 0, 420.00, 12.70, 50.00, 0.00, 152.40, 0.00, 0.00, 0.00, 0.00, 0.00, 0.00, 0.00, 0.00, 0.00, 0.00, 0.00, 0.00, 0.00, 0.00, 0.00, 0.00, 3196.90, 3196.20, 0.00, 0.00, 0.00, 0.00, 1, 0, 0, 0, '0000000000000000', '', '', '', '', '', '', '', '',
6469, 2023-11-14 05:55:28, 0, 420.00, 12.70, 50.00, 0.00, 152.40, 0.00, 0.00, 0.00, 0.00, 0.00, 0.00, 0.00, 0.00, 0.00, 0.00, 0.00, 0.00, 0.00, 0.00, 0.00, 0.00, 3196.80, 3196.10, 0.00, 0.00, 0.00, 0.00, 1, 0, 0, 0, '0000000000000000', '', '', '', '', '', '', '', '',
6513, 2023-11-14 06:00:31, 0, 420.00, 12.70, 50.00, 0.00, 152.40, 0.00, 0.00, 0.00, 0.00, 0.00, 0.00, 0.00, 0.00, 0.00, 0.00, 0.00, 0.00, 0.00, 0.00, 0.00, 0.00, 3196.90, 3196.30, 0.00, 0.00, 0.00, 0.00, 1, 0, 0, 0, '0000000000000000', '', '', '', '', '', '', '', '',
6557, 2023-11-14 06:05:34, 0, 420.00, 12.70, 50.00, 0.00, 152.40, 0.00, 0.00, 0.00, 0.00, 0.00, 0.00, 0.00, 0.00, 0.00, 0.00, 0.00, 0.00, 0.00, 0.00, 0.00, 0.00, 3196.90, 3196.20, 0.00, 0.00, 0.00, 0.00, 1, 0, 0, 0, '0000000000000000', '', '', '', '', '', '', '', '',
6601, 2023-11-14 06:10:36, 0, 420.00, 12.70, 50.00, 0.00, 152.40, 0.00, 0.00, 0.00, 0.00, 0.00, 0.00, 0.00, 0.00, 0.00, 0.00, 0.00, 0.00, 0.00, 0.00, 0.00, 0.00, 3196.90, 3196.20, 0.00, 0.00, 0.00, 0.00, 1, 0, 0, 0, '0000000000000000', '', '', '', '', '', '', '', '',
6645, 2023-11-14 06:15:39, 0, 420.00, 12.70, 50.00, 0.00, 152.40, 0.00, 0.00, 0.00, 0.00, 0.00, 0.00, 0.00, 0.00, 0.00, 0.00, 0.00, 0.00, 0.00, 0.00, 0.00, 0.00, 3196.90, 3196.20, 0.00, 0.00, 0.00, 0.00, 1, 0, 0, 0, '0000000000000000', '', '', '', '', '', '', '', '',
6689, 2023-11-14 06:20:42, 0, 420.00, 12.70, 50.00, 0.00, 152.40, 0.00, 0.00, 0.00, 0.00, 0.00, 0.00, 0.00, 0.00, 0.00, 0.00, 0.00, 0.00, 0.00, 0.00, 0.00, 0.00, 3196.90, 3196.10, 0.00, 0.00, 0.00, 0.00, 1, 0, 0, 0, '0000000000000000', '', '', '', '', '', '', '', '',
6733, 2023-11-14 06:25:45, 0, 420.00, 12.70, 50.00, 0.00, 152.40, 0.00, 0.00, 0.00, 0.00, 0.00, 0.00, 0.00, 0.00, 0.00, 0.00, 0.00, 0.00, 0.00, 0.00, 0.00, 0.00, 3196.80, 3196.10, 0.00, 0.00, 0.00, 0.00, 1, 0, 0, 0, '0000000000000000', '', '', '', '', '', '', '', '',
6777, 2023-11-14 06:30:47, 0, 420.00, 12.70, 50.00, 0.00, 152.40, 0.00, 0.00, 0.00, 0.00, 0.00, 0.00, 0.00, 0.00, 0.00, 0.00, 0.00, 0.00, 0.00, 0.00, 0.00, 0.00, 3196.90, 3196.10, 0.00, 0.00, 0.00, 0.00, 1, 0, 0, 0, '0000000000000000', '', '', '', '', '', '', '', '',
6821, 2023-11-14 06:35:50, 0, 420.00, 12.70, 50.00, 0.00, 152.40, 0.00, 0.00, 0.00, 0.00, 0.00, 0.00, 0.00, 0.00, 0.00, 0.00, 0.00, 0.00, 0.00, 0.00, 0.00, 0.00, 3196.90, 3196.10, 0.00, 0.00, 0.00, 0.00, 1, 0, 0, 0, '0000000000000000', '', '', '', '', '', '', '', '',
6865, 2023-11-14 06:40:53, 0, 420.00, 12.70, 50.00, 0.00, 152.40, 0.00, 0.00, 0.00, 0.00, 0.00, 0.00, 0.00, 0.00, 0.00, 0.00, 0.00, 0.00, 0.00, 0.00, 0.00, 0.00, 3196.80, 3196.10, 0.00, 0.00, 0.00, 0.00, 1, 0, 0, 0, '0000000000000000', '', '', '', '', '', '', '', '',
6909, 2023-11-14 06:45:56, 0, 420.00, 12.70, 50.00, 0.00, 152.40, 0.00, 0.00, 0.00, 0.00, 0.00, 0.00, 0.00, 0.00, 0.00, 0.00, 0.00, 0.00, 0.00, 0.00, 0.00, 0.00, 3196.90, 3196.10, 0.00, 0.00, 0.00, 0.00, 1, 0, 0, 0, '0000000000000000', '', '', '', '', '', '', '', '',
6953, 2023-11-14 06:50:59, 0, 420.00, 12.70, 50.00, 0.00, 152.40, 0.00, 0.00, 0.00, 0.00, 0.00, 0.00, 0.00, 0.00, 0.00, 0.00, 0.00, 0.00, 0.00, 0.00, 0.00, 0.00, 3196.80, 3195.90, 0.00, 0.00, 0.00, 0.00, 1, 0, 0, 0, '0000000000000000', '', '', '', '', '', '', '', '',
6997, 2023-11-14 06:56:01, 0, 420.00, 12.70, 50.00, 0.00, 152.40, 0.00, 0.00, 0.00, 0.00, 0.00, 0.00, 0.00, 0.00, 0.00, 0.00, 0.00, 0.00, 0.00, 0.00, 0.00, 0.00, 3196.70, 3196.00, 0.00, 0.00, 0.00, 0.00, 1, 0, 0, 0, '0000000000000000', '', '', '', '', '', '', '', '',
7041, 2023-11-14 07:01:04, 0, 420.00, 12.70, 50.00, 0.00, 152.40, 0.00, 0.00, 0.00, 0.00, 0.00, 0.00, 0.00, 0.00, 0.00, 0.00, 0.00, 0.00, 0.00, 0.00, 0.00, 0.00, 3196.70, 3196.00, 0.00, 0.00, 0.00, 0.00, 1, 0, 0, 0, '0000000000000000', '', '', '', '', '', '', '', '',
7085, 2023-11-14 07:06:07, 0, 420.00, 12.70, 50.00, 0.00, 152.40, 0.00, 0.00, 0.00, 0.00, 0.00, 0.00, 0.00, 0.00, 0.00, 0.00, 0.00, 0.00, 0.00, 0.00, 0.00, 0.00, 3196.80, 3195.90, 0.00, 0.00, 0.00, 0.00, 1, 0, 0, 0, '0000000000000000', '', '', '', '', '', '', '', '',
7129, 2023-11-14 07:11:10, 0, 420.00, 12.70, 50.00, 0.00, 152.40, 0.00, 0.00, 0.00, 0.00, 0.00, 0.00, 0.00, 0.00, 0.00, 0.00, 0.00, 0.00, 0.00, 0.00, 0.00, 0.00, 3196.70, 3196.10, 0.00, 0.00, 0.00, 0.00, 1, 0, 0, 0, '0000000000000000', '', '', '', '', '', '', '', '',
7173, 2023-11-14 07:16:12, 0, 420.00, 12.70, 50.00, 0.00, 152.40, 0.00, 0.00, 0.00, 0.00, 0.00, 0.00, 0.00, 0.00, 0.00, 0.00, 0.00, 0.00, 0.00, 0.00, 0.00, 0.00, 3196.80, 3196.00, 0.00, 0.00, 0.00, 0.00, 1, 0, 0, 0, '0000000000000000', '', '', '', '', '', '', '', '',
7217, 2023-11-14 07:21:15, 0, 420.00, 12.70, 50.00, 0.00, 152.40, 0.00, 0.00, 0.00, 0.00, 0.00, 0.00, 0.00, 0.00, 0.00, 0.00, 0.00, 0.00, 0.00, 0.00, 0.00, 0.00, 3196.80, 3196.00, 0.00, 0.00, 0.00, 0.00, 1, 0, 0, 0, '0000000000000000', '', '', '', '', '', '', '', '',
7261, 2023-11-14 07:26:18, 0, 420.00, 12.70, 50.00, 0.00, 152.40, 0.00, 0.00, 0.00, 0.00, 0.00, 0.00, 0.00, 0.00, 0.00, 0.00, 0.00, 0.00, 0.00, 0.00, 0.00, 0.00, 3196.60, 3195.90, 0.00, 0.00, 0.00, 0.00, 1, 0, 0, 0, '0000000000000000', '', '', '', '', '', '', '', '',
7305, 2023-11-14 07:31:21, 0, 420.00, 12.70, 50.00, 0.00, 152.40, 0.00, 0.00, 0.00, 0.00, 0.00, 0.00, 0.00, 0.00, 0.00, 0.00, 0.00, 0.00, 0.00, 0.00, 0.00, 0.00, 3196.70, 3195.90, 0.00, 0.00, 0.00, 0.00, 1, 0, 0, 0, '0000000000000000', '', '', '', '', '', '', '', '',
7349, 2023-11-14 07:36:23, 0, 420.00, 12.70, 50.00, 0.00, 152.40, 0.00, 0.00, 0.00, 0.00, 0.00, 0.00, 0.00, 0.00, 0.00, 0.00, 0.00, 0.00, 0.00, 0.00, 0.00, 0.00, 3196.80, 3195.90, 0.00, 0.00, 0.00, 0.00, 1, 0, 0, 0, '0000000000000000', '', '', '', '', '', '', '', '',
7393, 2023-11-14 07:41:26, 0, 420.00, 12.70, 50.00, 0.00, 152.40, 0.00, 0.00, 0.00, 0.00, 0.00, 0.00, 0.00, 0.00, 0.00, 0.00, 0.00, 0.00, 0.00, 0.00, 0.00, 0.00, 3196.60, 3195.80, 0.00, 0.00, 0.00, 0.00, 1, 0, 0, 0, '0000000000000000', '', '', '', '', '', '', '', '',
7437, 2023-11-14 07:46:29, 0, 420.00, 12.70, 50.00, 0.00, 152.40, 0.00, 0.00, 0.00, 0.00, 0.00, 0.00, 0.00, 0.00, 0.00, 0.00, 0.00, 0.00, 0.00, 0.00, 0.00, 0.00, 3196.70, 3195.90, 0.00, 0.00, 0.00, 0.00, 1, 0, 0, 0, '0000000000000000', '', '', '', '', '', '', '', '',
7481, 2023-11-14 07:51:31, 0, 420.00, 12.70, 50.00, 0.00, 152.40, 0.00, 0.00, 0.00, 0.00, 0.00, 0.00, 0.00, 0.00, 0.00, 0.00, 0.00, 0.00, 0.00, 0.00, 0.00, 0.00, 3196.60, 3195.80, 0.00, 0.00, 0.00, 0.00, 1, 0, 0, 0, '0000000000000000', '', '', '', '', '', '', '', '',
7525, 2023-11-14 07:56:34, 0, 420.00, 12.70, 50.00, 0.00, 152.40, 0.00, 0.00, 0.00, 0.00, 0.00, 0.00, 0.00, 0.00, 0.00, 0.00, 0.00, 0.00, 0.00, 0.00, 0.00, 0.00, 3196.70, 3195.90, 0.00, 0.00, 0.00, 0.00, 1, 0, 0, 0, '0000000000000000', '', '', '', '', '', '', '', '',
7569, 2023-11-14 08:01:37, 0, 420.00, 12.70, 50.00, 0.00, 152.40, 0.00, 0.00, 0.00, 0.00, 0.00, 0.00, 0.00, 0.00, 0.00, 0.00, 0.00, 0.00, 0.00, 0.00, 0.00, 0.00, 3196.60, 3195.90, 0.00, 0.00, 0.00, 0.00, 1, 0, 0, 0, '0000000000000000', '', '', '', '', '', '', '', '',
7613, 2023-11-14 08:06:39, 0, 420.00, 12.70, 50.00, 0.00, 152.40, 0.00, 0.00, 0.00, 0.00, 0.00, 0.00, 0.00, 0.00, 0.00, 0.00, 0.00, 0.00, 0.00, 0.00, 0.00, 0.00, 3196.60, 3195.80, 0.00, 0.00, 0.00, 0.00, 1, 0, 0, 0, '0000000000000000', '', '', '', '', '', '', '', '',
7657, 2023-11-14 08:11:42, 0, 420.00, 12.70, 50.00, 0.00, 152.40, 0.00, 0.00, 0.00, 0.00, 0.00, 0.00, 0.00, 0.00, 0.00, 0.00, 0.00, 0.00, 0.00, 0.00, 0.00, 0.00, 3196.50, 3195.90, 0.00, 0.00, 0.00, 0.00, 1, 0, 0, 0, '0000000000000000', '', '', '', '', '', '', '', '',
7701, 2023-11-14 08:16:45, 0, 420.00, 12.70, 50.00, 0.00, 152.40, 0.00, 0.00, 0.00, 0.00, 0.00, 0.00, 0.00, 0.00, 0.00, 0.00, 0.00, 0.00, 0.00, 0.00, 0.00, 0.00, 3196.60, 3195.90, 0.00, 0.00, 0.00, 0.00, 1, 0, 0, 0, '0000000000000000', '', '', '', '', '', '', '', '',
7745, 2023-11-14 08:21:48, 0, 420.00, 12.70, 50.00, 0.00, 152.40, 0.00, 0.00, 0.00, 0.00, 0.00, 0.00, 0.00, 0.00, 0.00, 0.00, 0.00, 0.00, 0.00, 0.00, 0.00, 0.00, 3196.60, 3195.90, 0.00, 0.00, 0.00, 0.00, 1, 0, 0, 0, '0000000000000000', '', '', '', '', '', '', '', '',
7789, 2023-11-14 08:26:51, 0, 420.00, 12.70, 50.00, 0.00, 152.40, 0.00, 0.00, 0.00, 0.00, 0.00, 0.00, 0.00, 0.00, 0.00, 0.00, 0.00, 0.00, 0.00, 0.00, 0.00, 0.00, 3196.50, 3195.80, 0.00, 0.00, 0.00, 0.00, 1, 0, 0, 0, '0000000000000000', '', '', '', '', '', '', '', '',
7833, 2023-11-14 08:31:53, 0, 420.00, 12.70, 50.00, 0.00, 152.40, 0.00, 0.00, 0.00, 0.00, 0.00, 0.00, 0.00, 0.00, 0.00, 0.00, 0.00, 0.00, 0.00, 0.00, 0.00, 0.00, 3196.50, 3195.80, 0.00, 0.00, 0.00, 0.00, 1, 0, 0, 0, '0000000000000000', '', '', '', '', '', '', '', '',
7877, 2023-11-14 08:36:56, 0, 420.00, 12.70, 50.00, 0.00, 152.40, 0.00, 0.00, 0.00, 0.00, 0.00, 0.00, 0.00, 0.00, 0.00, 0.00, 0.00, 0.00, 0.00, 0.00, 0.00, 0.00, 3196.60, 3195.80, 0.00, 0.00, 0.00, 0.00, 1, 0, 0, 0, '0000000000000000', '', '', '', '', '', '', '', '',
7921, 2023-11-14 08:41:59, 0, 420.00, 12.70, 50.00, 0.00, 152.40, 0.00, 0.00, 0.00, 0.00, 0.00, 0.00, 0.00, 0.00, 0.00, 0.00, 0.00, 0.00, 0.00, 0.00, 0.00, 0.00, 3196.60, 3195.80, 0.00, 0.00, 0.00, 0.00, 1, 0, 0, 0, '0000000000000000', '', '', '', '', '', '', '', '',
7965, 2023-11-14 08:47:01, 0, 420.00, 12.70, 50.00, 0.00, 152.40, 0.00, 0.00, 0.00, 0.00, 0.00, 0.00, 0.00, 0.00, 0.00, 0.00, 0.00, 0.00, 0.00, 0.00, 0.00, 0.00, 3196.60, 3195.70, 0.00, 0.00, 0.00, 0.00, 1, 0, 0, 0, '0000000000000000', '', '', '', '', '', '', '', '',
8009, 2023-11-14 08:52:04, 0, 0.00, 12.70, 50.00, 0.00, 152.40, 0.00, 0.00, 0.00, 0.00, 0.00, 0.00, 0.00, 0.00, 0.00, 0.00, 0.00, 0.00, 0.00, 0.00, 0.00, 0.00, 3196.50, 3195.70, 0.00, 0.00, 0.00, 0.00, 2, 0, 0, 0, '0000000000000000', '', '', '', '', '', '', '', '',
8034, 2023-11-14 08:54:56, 0, 0.00, 12.70, 50.00, 0.00, 152.40, 0.00, 0.00, 0.00, 0.00, 0.00, 0.00, 0.00, 0.00, 0.00, 0.00, 0.00, 0.00, 0.00, 0.00, 0.00, 0.00, 3196.50, 3195.70, 0.00, 0.00, 0.00, 0.00, 2, 0, 0, 0, '0000000000000000', '', '', '', '', '', '', '', '',